accel_x,accel_y,accel_z,gyro_x,gyro_y,gyro_z,temperature
-2.43,-2.95,9.09,-0.02,-0.04,0.01,34.92
-2.23,-2.99,8.93,0.01,-0.04,0.01,34.92
-2.38,-3.0,9.13,-0.02,-0.08,0.01,34.9
-2.32,-2.9,9.11,-0.01,-0.03,0.01,34.92
-2.35,-2.92,9.1,-0.02,-0.03,0.0,34.92
-3.18,4.71,8.21,0.51,-0.02,-0.1,34.94
0.43,1.56,10.5,-0.48,-0.4,0.12,34.93
-0.72,0.52,10.07,0.24,-0.26,-0.04,34.94
-0.14,-0.19,10.11,-0.14,0.15,0.08,34.92
-0.34,0.25,9.9,-0.05,0.02,0.06,34.94
-0.29,1.07,9.84,-0.02,0.01,-0.17,34.94
-1.32,0.55,10.0,0.05,0.06,0.03,34.94
-2.21,-1.24,9.57,-0.07,0.04,0.25,34.93
-0.78,0.72,9.91,-0.12,-0.01,-0.0,34.94
0.07,0.15,9.78,-0.01,-0.08,0.01,34.92
-0.62,0.37,9.88,0.12,-0.05,0.1,34.93
-0.0,0.09,9.81,0.0,-0.14,-0.0,34.93
0.11,0.21,10.04,0.12,-0.05,-0.0,34.92
-0.06,0.67,10.07,0.0,-0.01,0.0,34.94
0.05,0.73,9.88,0.03,-0.03,0.02,34.93
-0.7,0.68,10.43,-0.04,0.01,0.0,34.94
0.0,0.62,10.03,-0.01,-0.05,0.01,34.95
-0.03,0.63,10.02,-0.01,-0.05,0.01,34.93
0.03,0.6,10.07,-0.01,-0.03,0.02,34.93
0.0,0.6,10.05,-0.0,-0.05,0.01,34.94
0.0,0.64,9.95,-0.02,-0.05,0.02,34.95
-0.07,0.65,10.08,-0.02,-0.04,0.01,34.92
-0.02,0.65,10.02,-0.02,-0.08,0.02,34.94
-0.0,0.7,10.0,-0.0,-0.05,0.01,34.94
-0.02,0.62,9.92,-0.01,-0.06,0.02,34.94
0.04,0.57,10.03,-0.01,-0.04,0.02,34.93
0.01,0.62,10.0,-0.01,-0.04,0.01,34.92
-0.06,0.66,10.04,-0.01,-0.06,0.01,34.94
0.01,0.62,10.02,-0.01,-0.05,0.01,34.94
-0.05,0.65,10.03,0.0,-0.04,0.01,34.94
0.02,0.64,10.0,-0.01,-0.05,0.01,34.92
0.11,0.7,9.91,-0.02,-0.05,0.02,34.92
-0.07,0.75,10.03,-0.02,-0.04,0.01,34.95
0.01,0.62,10.0,-0.02,-0.05,0.01,34.95
0.0,0.63,10.01,-0.01,-0.05,0.01,34.95
-0.06,0.68,10.05,-0.01,-0.07,0.01,34.94
-0.01,0.63,10.04,0.02,-0.03,0.01,34.93
-0.11,0.64,10.08,-0.01,-0.04,0.01,34.96
0.06,0.6,10.03,-0.02,-0.06,0.02,34.94
-0.02,0.64,10.01,-0.01,-0.04,0.01,34.95
-0.07,0.6,9.98,-0.0,-0.07,0.01,34.93
0.05,0.68,9.99,-0.01,-0.05,0.01,34.94
-0.04,0.64,10.04,0.0,-0.04,0.01,34.94
0.02,0.62,9.96,-0.0,-0.03,0.01,34.93
0.32,1.21,9.87,-0.01,-0.03,0.05,34.94
-0.91,1.53,10.37,-0.63,0.08,0.21,34.95
0.35,0.74,9.67,0.05,-0.07,-0.0,34.94
0.07,0.68,9.99,-0.08,-0.03,0.01,34.95
0.86,1.16,9.47,-0.0,0.05,0.05,34.94
0.14,0.56,10.08,0.01,-0.03,0.02,34.96
0.06,0.54,10.05,-0.01,-0.04,0.02,34.94
0.05,0.38,10.04,0.0,-0.07,0.01,34.95
0.07,0.57,9.96,-0.01,-0.06,0.01,34.92
0.05,0.51,10.05,-0.01,-0.06,0.01,34.95
0.06,0.54,10.04,-0.01,-0.05,0.02,34.94
-0.28,0.55,9.98,0.02,-0.07,0.02,34.94
0.07,0.47,10.05,-0.02,-0.03,-0.0,34.95
0.06,0.42,10.04,-0.01,-0.05,0.0,34.95
0.01,0.48,10.02,-0.01,-0.06,0.01,34.95
0.06,0.44,10.0,-0.0,-0.04,0.01,34.94
0.06,0.45,9.95,-0.04,-0.04,0.01,34.94
0.03,0.52,10.26,-0.02,-0.04,0.01,34.95
0.05,0.48,10.07,0.01,-0.04,0.01,34.94
-0.03,0.44,10.09,-0.02,-0.04,0.02,34.94
-0.03,0.45,10.02,-0.01,-0.05,0.01,34.93
0.05,0.45,10.01,-0.02,-0.06,0.01,34.94
0.05,0.46,10.04,-0.01,-0.04,0.02,34.93
-0.0,0.48,10.02,-0.01,-0.04,0.01,34.92
0.0,0.46,10.03,-0.01,-0.05,0.01,34.94
0.09,0.48,9.98,-0.01,-0.05,0.01,34.93
0.08,0.43,9.96,-0.0,-0.06,0.02,34.92
0.02,0.44,10.07,-0.01,-0.05,0.01,34.93
0.01,0.47,10.07,-0.01,-0.05,0.01,34.94
0.08,0.48,10.07,-0.01,-0.05,0.01,34.95
0.06,0.45,10.01,-0.01,-0.04,0.01,34.94
0.02,0.44,10.02,-0.01,-0.05,0.01,34.92
0.07,0.46,10.03,-0.01,-0.06,0.01,34.92
0.05,0.45,10.07,-0.01,-0.04,0.01,34.95
0.05,0.44,9.88,-0.04,-0.05,0.01,34.94
-0.01,0.49,10.07,0.01,-0.05,0.01,34.95
0.14,0.46,9.87,-0.01,-0.06,0.01,34.93
-0.03,0.45,10.01,-0.01,-0.05,0.02,34.94
0.02,0.42,10.03,-0.01,-0.05,0.02,34.94
0.07,0.41,10.08,-0.01,-0.05,0.01,34.94
0.03,0.48,10.01,-0.01,-0.04,0.02,34.95
-0.0,0.47,10.06,-0.01,-0.05,0.01,34.94
-0.01,0.48,10.04,-0.01,-0.06,0.01,34.93
0.06,0.43,10.04,-0.01,-0.04,0.01,34.94
0.03,0.41,10.03,-0.01,-0.05,0.01,34.94
0.0,0.47,10.04,-0.01,-0.05,0.01,34.94
0.07,0.42,10.01,-0.01,-0.05,0.01,34.93
0.2,0.8,9.9,-0.01,-0.06,-0.09,34.91
0.02,0.18,10.02,0.01,-0.06,-0.01,34.94
0.22,0.68,10.14,0.02,-0.06,0.04,34.94
0.14,0.41,10.02,-0.02,-0.08,0.01,34.94
0.04,0.6,10.3,0.02,-0.04,0.04,34.94
0.22,0.34,10.06,-0.02,-0.05,0.05,34.94
0.16,0.4,10.02,0.0,-0.05,0.01,34.92
0.06,0.42,10.02,-0.01,-0.04,0.01,34.92
0.05,0.43,10.0,-0.01,-0.05,0.01,34.92
0.1,0.43,10.04,-0.01,-0.05,0.01,34.91
0.08,0.41,10.03,-0.01,-0.05,0.02,34.93
0.04,0.41,10.02,-0.01,-0.06,0.01,34.94
0.03,0.45,10.05,0.01,-0.05,0.02,34.94
-0.01,0.41,10.11,-0.02,-0.04,0.02,34.91
0.03,0.42,10.04,-0.01,-0.05,0.01,34.91
0.09,0.43,10.04,-0.0,-0.05,0.01,34.93
0.05,0.44,10.04,-0.01,-0.04,0.01,34.93
0.04,0.44,10.02,-0.01,-0.05,0.01,34.92
0.03,0.44,10.04,-0.01,-0.06,0.01,34.92
0.12,0.43,10.01,-0.01,-0.04,0.01,34.93
0.06,0.45,10.03,-0.01,-0.05,0.01,34.92
0.05,0.43,10.05,-0.01,-0.06,0.01,34.92
0.11,0.4,10.04,-0.01,-0.04,0.01,34.9
0.0,0.46,10.04,-0.0,-0.04,0.01,34.92
0.02,0.47,10.1,0.01,-0.06,0.01,34.89
0.12,0.45,10.08,-0.03,-0.04,0.01,34.91
0.13,0.41,10.01,-0.01,-0.05,0.02,34.92
0.04,0.45,10.06,-0.01,-0.05,0.01,34.92
0.08,0.45,10.05,-0.01,-0.05,0.01,34.89
0.05,0.45,10.02,-0.01,-0.05,0.01,34.9
0.03,0.42,10.05,-0.01,-0.05,0.01,34.9
0.03,0.46,10.05,-0.01,-0.05,0.01,34.9
0.1,0.46,10.04,-0.01,-0.04,0.01,34.9
0.06,0.43,10.02,-0.01,-0.04,0.01,34.9
0.06,0.45,10.03,-0.01,-0.05,0.01,34.9
0.06,0.43,10.02,-0.01,-0.05,0.01,34.89
0.07,0.45,10.02,-0.01,-0.04,0.01,34.89
0.02,0.43,10.02,-0.01,-0.05,0.01,34.9
0.08,0.44,10.04,-0.01,-0.05,0.01,34.9
0.04,0.42,10.02,-0.01,-0.05,0.02,34.89
0.07,0.43,9.98,-0.03,-0.05,0.01,34.91
0.09,0.44,10.09,0.0,-0.05,0.01,34.89
0.01,0.42,10.08,-0.02,-0.04,0.02,34.89
0.05,0.42,10.02,-0.01,-0.06,0.01,34.91
0.13,0.43,10.04,-0.01,-0.04,0.01,34.9
0.04,0.44,10.01,-0.01,-0.04,0.02,34.89
0.07,0.46,10.05,-0.01,-0.05,0.01,34.9
0.08,0.44,9.99,-0.01,-0.05,0.02,34.89
0.09,0.44,10.06,-0.01,-0.06,0.01,34.91
0.09,0.4,10.06,0.01,-0.05,0.02,34.9
0.07,0.45,10.03,-0.01,-0.05,0.01,34.89
0.05,0.43,10.02,-0.01,-0.05,0.01,34.88
0.1,0.41,10.06,-0.01,-0.05,0.01,34.9
0.06,0.44,10.06,-0.01,-0.04,0.02,34.9
0.04,0.45,10.04,-0.01,-0.05,0.01,34.91
0.12,0.42,10.04,-0.01,-0.05,0.01,34.9
0.06,0.44,10.06,-0.0,-0.05,0.02,34.89
0.07,0.5,10.23,-0.02,-0.04,0.01,34.9
0.08,0.43,10.09,-0.0,-0.04,0.01,34.89
0.12,0.48,9.92,-0.01,-0.05,0.02,34.89
0.05,0.45,10.09,-0.02,-0.05,0.01,34.9
0.14,0.42,9.99,-0.01,-0.04,0.02,34.9
0.02,0.45,10.04,-0.01,-0.05,0.01,34.88
0.07,0.46,10.04,-0.01,-0.06,0.01,34.87
0.04,0.43,10.05,-0.01,-0.05,0.01,34.89
0.09,0.42,10.04,-0.01,-0.05,0.01,34.87
0.08,0.46,10.01,-0.01,-0.05,0.01,34.89
0.11,0.44,9.97,-0.01,-0.06,0.01,34.87
0.07,0.44,10.02,-0.0,-0.05,0.02,34.88
0.03,0.46,10.05,-0.0,-0.05,0.02,34.86
0.08,0.42,10.03,-0.01,-0.05,0.01,34.89
0.1,0.43,10.04,-0.01,-0.04,0.01,34.88
0.04,0.43,10.05,-0.01,-0.04,0.01,34.88
0.04,0.4,10.02,-0.01,-0.05,0.01,34.87
0.09,0.45,10.04,-0.01,-0.05,0.01,34.85
0.05,0.44,10.04,-0.01,-0.04,0.01,34.87
0.02,0.45,10.04,-0.01,-0.05,0.01,34.88
0.1,0.42,10.05,-0.01,-0.05,0.01,34.86
0.14,0.47,10.04,0.01,-0.06,0.02,34.87
0.03,0.77,10.01,-0.01,-0.05,0.02,34.87
-0.01,0.38,10.08,0.0,-0.05,0.0,34.87
0.06,0.42,9.88,-0.03,-0.05,0.01,34.89
0.1,0.46,9.92,-0.03,-0.06,0.01,34.87
0.07,0.46,9.99,0.01,-0.05,0.01,34.88
0.05,0.47,9.99,0.01,-0.06,0.01,34.85
0.11,0.45,9.98,0.01,-0.06,0.01,34.87
0.0,0.43,10.09,-0.02,-0.04,0.02,34.86
-0.02,0.43,10.09,-0.02,-0.04,0.01,34.85
0.07,0.47,10.1,-0.03,-0.04,0.01,34.84
0.08,0.43,10.0,-0.01,-0.05,0.02,34.86
0.07,0.44,10.04,-0.01,-0.05,0.01,34.86
0.07,0.42,9.93,0.01,-0.08,0.01,34.86
0.08,0.45,9.9,-0.01,-0.06,0.01,34.85
0.08,0.43,10.07,-0.01,-0.05,0.01,34.86
-0.11,0.67,10.23,0.03,-0.06,0.04,34.87
-0.01,0.63,10.04,0.0,-0.05,0.01,34.88
0.06,0.45,10.04,-0.01,-0.05,0.01,34.85
0.04,0.57,10.04,-0.01,-0.04,0.02,34.85
0.05,0.49,10.02,-0.01,-0.05,0.01,34.86
0.04,0.48,10.01,-0.01,-0.06,0.01,34.85
0.05,0.48,10.05,-0.01,-0.04,0.01,34.87
0.03,0.47,10.0,-0.01,-0.05,0.01,34.85
0.06,0.48,10.06,-0.01,-0.06,0.01,34.84
0.12,0.56,10.23,-0.01,-0.03,0.01,34.86
0.0,0.53,10.07,0.01,-0.04,0.01,34.83
0.06,0.53,10.22,-0.0,-0.05,0.01,34.86
0.03,0.48,10.02,0.01,-0.05,0.01,34.83
-0.01,0.52,10.13,-0.0,-0.04,0.01,34.84
0.08,0.48,10.02,-0.0,-0.05,0.01,34.84
0.11,0.47,9.94,-0.01,-0.05,0.01,34.87
0.11,0.48,9.96,-0.02,-0.05,0.01,34.85
0.01,0.47,10.1,-0.02,-0.05,0.01,34.85
0.06,0.47,10.02,-0.01,-0.05,0.02,34.85
0.05,0.45,10.01,-0.01,-0.05,0.01,34.86
0.07,0.46,10.01,-0.01,-0.06,0.02,34.84
0.08,0.47,10.04,-0.01,-0.04,0.02,34.86
0.02,0.49,10.07,-0.01,-0.05,0.01,34.84
0.1,0.48,10.08,-0.01,-0.06,0.01,34.85
0.01,0.5,10.04,-0.01,-0.04,0.02,34.82
-0.02,0.51,10.11,0.0,-0.05,0.01,34.83
0.1,0.48,9.99,-0.01,-0.06,0.01,34.86
0.04,0.5,10.05,-0.01,-0.05,0.02,34.86
0.03,0.49,10.05,-0.0,-0.05,0.02,34.83
0.08,0.47,10.01,-0.0,-0.05,0.01,34.84
0.06,0.46,10.04,-0.01,-0.04,0.01,34.84
0.04,0.49,10.04,-0.01,-0.05,0.01,34.84
0.07,0.49,10.04,-0.01,-0.05,0.01,34.85
0.04,0.47,10.06,-0.01,-0.04,0.01,34.85
0.02,0.48,10.03,-0.01,-0.05,0.01,34.84
0.03,0.48,10.03,-0.01,-0.06,0.02,34.84
0.08,0.49,10.06,-0.01,-0.05,0.01,34.85
0.03,0.49,10.06,-0.01,-0.05,0.01,34.86
0.07,0.49,10.07,-0.01,-0.06,0.01,34.84
0.03,0.51,10.08,0.0,-0.04,0.01,34.82
0.03,0.49,9.9,0.0,-0.06,0.01,34.83
0.14,0.53,9.95,-0.02,-0.05,0.01,34.85
0.01,0.48,10.03,-0.01,-0.05,0.02,34.83
0.05,0.47,10.03,-0.01,-0.06,0.01,34.84
0.05,0.48,10.0,-0.01,-0.04,0.01,34.84
0.03,0.52,10.05,-0.01,-0.05,0.01,34.83
0.01,0.49,10.04,-0.01,-0.05,0.01,34.84
0.09,0.49,10.0,-0.01,-0.05,0.01,34.84
0.02,0.49,10.03,-0.01,-0.04,0.01,34.84
0.01,0.47,10.02,-0.01,-0.05,0.01,34.82
0.11,0.48,10.05,-0.01,-0.05,0.01,34.84
0.04,0.45,10.01,-0.0,-0.05,0.01,34.83
0.01,0.54,10.26,-0.01,-0.04,0.01,34.83
0.09,0.49,9.94,-0.01,-0.05,0.02,34.81
0.09,0.48,10.0,-0.02,-0.05,0.02,34.82
0.09,0.48,9.91,0.0,-0.06,0.01,34.84
-0.02,0.46,10.08,-0.02,-0.04,0.01,34.81
0.0,0.47,10.08,-0.01,-0.05,0.01,34.83
0.12,0.47,10.02,-0.01,-0.06,0.01,34.82
0.03,0.48,10.05,-0.01,-0.04,0.01,34.82
0.01,0.48,10.0,-0.01,-0.05,0.01,34.84
0.04,0.46,10.02,-0.01,-0.05,0.01,34.83
0.04,0.47,10.07,-0.01,-0.05,0.01,34.81
0.07,0.5,10.01,-0.01,-0.04,0.01,34.8
0.01,0.48,10.07,-0.01,-0.04,0.01,34.81
0.05,0.5,10.06,-0.01,-0.05,0.01,34.81
0.01,0.5,9.99,-0.01,-0.05,0.01,34.79
0.12,0.49,10.08,-0.01,-0.05,0.01,34.8
0.0,0.5,10.07,-0.01,-0.05,0.01,34.81
0.04,0.47,10.03,-0.01,-0.06,0.01,34.81
0.08,0.47,10.03,-0.01,-0.04,0.01,34.8
0.02,0.48,10.03,-0.01,-0.05,0.01,34.83
0.07,0.5,10.06,-0.01,-0.05,0.01,34.8
0.04,0.5,10.07,-0.01,-0.04,0.01,34.82
0.02,0.47,10.01,-0.01,-0.05,0.01,34.82
0.09,0.45,9.86,-0.03,-0.06,0.01,34.81
0.12,0.54,9.98,-0.02,-0.05,0.01,34.82
0.01,0.46,10.07,-0.02,-0.06,0.02,34.83
0.07,0.51,10.04,-0.01,-0.04,0.01,34.8
-0.01,0.51,10.03,-0.01,-0.05,0.01,34.81
0.04,0.49,10.04,-0.01,-0.03,0.01,34.8
0.05,0.49,9.92,-0.01,-0.06,0.01,34.8
0.12,0.49,9.98,-0.01,-0.05,0.01,34.81
0.02,0.51,10.07,-0.01,-0.05,0.01,34.82
0.04,0.52,10.04,-0.01,-0.05,0.01,34.81
0.08,0.51,10.05,-0.01,-0.03,0.01,34.8
0.0,0.48,10.03,-0.01,-0.05,0.01,34.82
0.06,0.49,10.03,-0.01,-0.05,0.01,34.8
0.05,0.49,10.04,-0.01,-0.04,0.02,34.82
0.01,0.52,10.05,-0.01,-0.05,0.01,34.79
0.08,0.49,10.05,-0.01,-0.05,0.01,34.8
0.07,0.51,10.15,-0.03,-0.04,0.01,34.79
-0.02,0.54,10.22,-0.0,-0.04,0.01,34.79
0.04,0.48,10.03,-0.01,-0.05,0.01,34.82
0.1,0.48,9.98,-0.03,-0.05,0.01,34.81
0.02,0.51,10.05,0.0,-0.04,0.01,34.79
-0.02,0.5,10.07,-0.0,-0.04,0.01,34.81
0.0,0.53,10.2,-0.01,-0.05,0.01,34.78
0.1,0.49,9.97,0.0,-0.06,0.01,34.79
-0.02,0.47,10.07,-0.02,-0.05,0.01,34.79
-0.03,0.47,10.1,-0.02,-0.05,0.01,34.79
-0.01,0.48,10.06,-0.01,-0.05,0.01,34.79
0.07,0.46,10.05,-0.01,-0.06,0.02,34.81
0.05,0.47,10.02,-0.01,-0.05,0.01,34.79
0.03,0.48,10.02,-0.01,-0.06,0.02,34.8
0.08,0.47,10.04,-0.01,-0.04,0.01,34.75
0.03,0.49,10.03,-0.01,-0.05,0.01,34.81
0.08,0.46,10.03,-0.01,-0.05,0.01,34.8
0.04,0.49,10.06,-0.01,-0.04,0.01,34.8
0.01,0.49,10.05,-0.01,-0.06,0.01,34.77
0.1,0.49,10.05,-0.01,-0.05,0.01,34.79
0.03,0.49,10.03,-0.01,-0.05,0.01,34.78
0.08,0.47,10.02,-0.01,-0.05,0.02,34.79
-0.01,0.46,10.05,-0.01,-0.05,0.01,34.78
0.01,0.47,10.12,-0.02,-0.05,0.02,34.79
0.07,0.51,10.01,-0.01,-0.05,0.02,34.77
0.06,0.48,10.08,-0.01,-0.06,0.01,34.77
0.06,0.5,10.02,-0.01,-0.03,0.01,34.79
-0.02,0.43,10.05,-0.0,-0.05,0.01,34.78
0.0,0.51,10.12,-0.0,-0.05,0.01,34.76
0.06,0.5,10.06,-0.01,-0.05,0.01,34.77
-0.04,0.52,10.08,-0.0,-0.05,0.01,34.77
-0.01,0.49,10.06,-0.01,-0.05,0.01,34.77
0.08,0.49,10.05,-0.01,-0.05,0.01,34.77
0.05,0.5,10.0,-0.01,-0.05,0.01,34.79
0.06,0.48,9.95,-0.01,-0.07,0.01,34.79
0.06,0.46,10.04,-0.01,-0.06,0.01,34.77
0.1,0.49,10.02,-0.01,-0.05,0.01,34.76
0.0,0.51,10.04,-0.0,-0.05,0.01,34.77
0.04,0.52,10.07,-0.01,-0.05,0.01,34.76
0.04,0.48,10.03,-0.01,-0.03,0.01,34.77
0.01,0.48,10.02,-0.01,-0.05,0.01,34.79
0.03,0.46,10.01,-0.01,-0.05,0.01,34.79
0.05,0.48,10.04,-0.01,-0.04,0.02,34.76
0.03,0.5,10.03,-0.01,-0.05,0.01,34.77
0.06,0.51,10.0,-0.01,-0.05,0.01,34.77
0.01,0.48,10.05,-0.01,-0.04,0.02,34.79
0.05,0.46,9.87,-0.03,-0.05,0.01,34.75
-0.0,0.53,10.17,-0.0,-0.04,0.01,34.77
0.07,0.51,9.95,0.01,-0.04,0.01,34.75
0.11,0.49,9.97,-0.01,-0.06,0.02,34.76
0.02,0.5,10.06,-0.02,-0.05,0.01,34.75
0.05,0.47,10.06,-0.01,-0.05,0.01,34.74
0.04,0.5,10.05,-0.01,-0.05,0.01,34.76
0.02,0.52,10.05,-0.01,-0.05,0.01,34.74
0.02,0.55,10.06,-0.01,-0.06,0.01,34.75
0.0,0.46,10.05,-0.01,-0.05,0.01,34.77
-0.06,0.51,10.06,-0.0,-0.06,0.01,34.75
0.08,0.48,10.01,-0.0,-0.05,0.01,34.75
-0.02,0.47,10.05,-0.01,-0.05,0.02,34.76
0.05,0.48,10.04,-0.01,-0.06,0.01,34.74
0.04,0.51,10.01,-0.01,-0.04,0.01,34.73
-0.01,0.5,10.06,-0.01,-0.05,0.01,34.74
0.03,0.49,10.05,-0.01,-0.05,0.01,34.76
0.04,0.48,10.01,-0.01,-0.05,0.01,34.75
0.01,0.46,10.01,-0.01,-0.05,0.01,34.74
0.05,0.47,9.89,-0.03,-0.06,0.01,34.74
-0.03,0.49,10.09,-0.02,-0.04,0.01,34.77
-0.03,0.47,10.06,-0.02,-0.05,0.01,34.74
0.01,0.49,10.06,-0.02,-0.05,0.01,34.73
0.06,0.47,10.01,-0.01,-0.04,0.02,34.73
0.04,0.48,9.99,-0.01,-0.05,0.02,34.74
0.1,0.46,10.05,-0.01,-0.05,0.01,34.75
-0.02,0.49,10.07,-0.01,-0.04,0.01,34.74
0.02,0.49,9.94,-0.01,-0.05,0.01,34.74
0.05,0.49,10.04,-0.01,-0.05,0.01,34.75
0.04,0.53,10.06,-0.01,-0.05,0.01,34.74
0.01,0.5,10.06,-0.01,-0.04,0.01,34.73
-0.02,0.51,10.06,-0.01,-0.05,0.01,34.74
0.04,0.51,10.01,-0.01,-0.05,0.01,34.74
0.0,0.49,10.03,-0.01,-0.04,0.01,34.74
0.02,0.48,10.05,-0.01,-0.05,0.01,34.74
0.01,0.47,10.05,-0.01,-0.05,0.02,34.75
0.07,0.5,10.05,-0.01,-0.05,0.01,34.72
0.0,0.51,10.04,-0.01,-0.05,0.02,34.73
0.06,0.48,10.0,-0.01,-0.05,0.01,34.72
0.02,0.48,10.04,-0.01,-0.05,0.01,34.76
0.02,0.51,10.07,-0.01,-0.05,0.01,34.75
0.04,0.47,9.98,-0.01,-0.05,0.01,34.74
-0.01,0.5,10.01,0.01,-0.05,0.02,34.73
-0.01,0.5,10.08,-0.02,-0.04,0.01,34.72
-0.04,0.47,10.09,-0.02,-0.06,0.01,34.73
0.05,0.51,10.03,-0.01,-0.04,0.01,34.74
0.01,0.5,10.05,-0.01,-0.05,0.01,34.75
0.03,0.51,10.05,-0.01,-0.05,0.01,34.75
0.06,0.49,10.04,-0.01,-0.05,0.01,34.73
0.0,0.5,10.02,-0.01,-0.05,0.01,34.72
0.01,0.5,10.06,-0.01,-0.05,0.01,34.73
0.05,0.51,10.03,-0.01,-0.05,0.01,34.72
0.02,0.48,10.04,-0.01,-0.04,0.02,34.73
0.05,0.47,10.0,-0.01,-0.05,0.01,34.73
0.06,0.55,10.24,-0.01,-0.04,0.01,34.75
0.05,0.54,10.05,-0.02,-0.05,0.02,34.74
-0.04,0.51,10.08,-0.02,-0.04,0.01,34.74
0.02,0.49,10.06,-0.02,-0.05,0.01,34.72
0.08,0.52,10.01,-0.02,-0.05,0.01,34.72
-0.05,0.49,10.08,-0.02,-0.04,0.02,34.72
-0.11,0.44,10.06,-0.02,-0.06,0.01,34.73
0.02,0.48,10.05,-0.01,-0.04,0.01,34.72
-0.0,0.49,10.03,-0.01,-0.05,0.02,34.73
0.03,0.49,10.03,-0.02,-0.06,0.01,34.73
0.05,0.5,10.05,-0.01,-0.03,0.01,34.73
-0.02,0.51,10.04,-0.01,-0.05,0.01,34.73
-0.03,0.54,10.1,-0.0,-0.05,0.01,34.72
0.07,0.48,9.97,-0.01,-0.06,0.01,34.74
0.03,0.47,10.07,-0.01,-0.05,0.02,34.73
0.02,0.51,10.02,-0.01,-0.05,0.01,34.76
0.03,0.53,10.04,-0.01,-0.05,0.01,34.73
0.07,0.51,10.03,-0.01,-0.03,0.01,34.74
0.02,0.5,10.04,-0.01,-0.05,0.01,34.72
-0.01,0.48,10.06,-0.01,-0.05,0.01,34.71
0.07,0.48,10.04,-0.01,-0.06,0.01,34.72
0.01,0.48,10.06,-0.0,-0.05,0.02,34.73
-0.0,0.53,10.08,0.01,-0.05,0.01,34.71
-0.03,0.47,10.09,-0.02,-0.05,0.01,34.72
0.04,0.5,10.04,-0.01,-0.04,0.02,34.73
0.02,0.47,10.09,-0.01,-0.05,0.01,34.73
0.01,0.5,10.07,-0.01,-0.05,0.01,34.71
0.05,0.51,10.04,-0.01,-0.05,0.01,34.72
-0.02,0.52,10.03,-0.0,-0.02,0.03,34.73
0.06,0.52,10.0,-0.01,-0.05,0.01,34.72
-0.41,0.61,10.32,-0.17,0.09,0.03,34.73
0.07,0.21,10.01,-0.0,-0.04,-0.02,34.73
-0.05,-0.12,10.06,0.02,-0.13,0.05,34.73
0.07,0.01,9.97,-0.03,-0.04,0.01,34.72
-0.01,0.34,9.95,-0.02,-0.08,0.01,34.73
-0.05,0.32,10.07,-0.01,-0.04,0.02,34.72
-0.06,0.29,10.03,-0.01,-0.05,0.01,34.73
-0.0,0.3,10.07,-0.01,-0.05,0.01,34.71
-0.03,0.27,9.89,-0.03,-0.05,0.01,34.73
-0.06,0.28,10.01,-0.01,-0.05,0.01,34.74
-0.0,0.27,10.01,-0.02,-0.05,0.01,34.73
-0.05,0.29,10.05,-0.03,-0.05,0.01,34.73
-0.1,0.34,10.08,0.0,-0.05,0.01,34.71
-0.06,0.3,10.06,-0.01,-0.06,0.01,34.73
-0.07,0.28,10.03,-0.0,-0.04,0.02,34.7
-0.06,0.29,10.06,-0.01,-0.05,0.01,34.71
-0.02,0.29,10.05,-0.01,-0.06,0.01,34.71
-0.06,0.29,10.03,-0.01,-0.04,0.02,34.72
-0.06,0.32,10.08,-0.01,-0.05,0.01,34.73
-0.08,0.3,10.05,-0.01,-0.05,0.01,34.72
-0.05,0.28,10.02,-0.01,-0.05,0.01,34.71
-0.06,0.27,10.02,-0.0,-0.04,0.01,34.72
-0.04,0.3,10.02,-0.01,-0.05,0.01,34.69
-0.02,0.49,9.96,-0.07,-0.01,0.02,34.72
-0.48,0.16,9.77,0.06,-0.07,-0.01,34.72
-0.29,-0.08,10.12,0.06,-0.06,0.01,34.72
-0.36,-0.24,9.92,0.01,-0.08,-0.01,34.72
-0.07,0.58,10.02,-0.08,-0.08,0.05,34.72
-0.07,0.27,10.02,-0.01,-0.04,0.02,34.72
-0.08,0.28,10.08,-0.01,-0.05,0.01,34.7
0.0,0.28,10.04,-0.01,-0.05,0.01,34.72
-0.06,0.29,10.08,-0.01,-0.05,0.01,34.73
-0.06,0.27,10.02,-0.01,-0.05,0.01,34.7
0.04,0.29,9.94,-0.03,-0.04,0.01,34.73
-0.06,0.24,9.9,-0.02,-0.05,0.01,34.71
-0.06,0.28,10.04,-0.01,-0.05,0.01,34.72
-0.03,0.24,10.06,-0.01,-0.05,0.01,34.7
-0.07,0.27,10.04,-0.01,-0.05,0.01,34.7
-0.08,0.25,10.05,-0.01,-0.06,0.01,34.71
-0.02,0.26,10.04,-0.01,-0.04,0.01,34.71
-0.07,0.26,10.02,-0.01,-0.05,0.01,34.7
-0.06,0.27,10.04,-0.01,-0.06,0.01,34.72
-0.02,0.28,10.12,-0.01,-0.04,0.01,34.73
-0.02,0.26,10.03,-0.01,-0.05,0.02,34.71
-0.03,0.28,10.05,-0.01,-0.05,0.01,34.7
-0.06,0.25,10.06,-0.01,-0.03,0.02,34.72
-0.04,0.25,9.98,-0.01,-0.05,0.01,34.72
-0.1,0.24,10.01,0.0,-0.05,0.01,34.71
-0.02,0.23,9.95,-0.0,-0.06,0.01,34.71
-0.06,0.24,10.07,-0.01,-0.05,0.02,34.7
-0.07,0.24,10.03,-0.02,-0.06,0.01,34.71
-0.05,0.29,10.04,-0.0,-0.04,0.02,34.71
-0.07,0.29,10.05,-0.01,-0.05,0.01,34.72
-0.03,0.25,10.07,-0.01,-0.05,0.01,34.71
-0.07,0.29,10.04,-0.01,-0.05,0.01,34.7
-0.06,0.25,10.09,-0.01,-0.05,0.01,34.71
-0.01,0.31,10.22,-0.01,-0.04,0.01,34.68
-0.09,0.3,10.08,-0.02,-0.05,0.02,34.7
-0.13,0.27,10.07,-0.02,-0.04,0.02,34.69
-0.02,0.25,10.04,-0.02,-0.06,0.01,34.7
-0.07,0.28,10.06,-0.01,-0.05,0.02,34.7
-0.08,0.3,10.06,-0.01,-0.05,0.01,34.68
-0.1,0.23,10.07,0.0,-0.05,0.01,34.69
-0.05,0.25,10.04,-0.01,-0.05,0.01,34.69
-0.08,0.27,10.06,-0.0,-0.05,0.01,34.69
-0.07,0.26,10.06,-0.01,-0.05,0.01,34.7
-0.04,0.28,10.03,-0.01,-0.03,0.01,34.7
-0.09,0.26,10.06,-0.01,-0.05,0.01,34.71
-0.03,0.26,10.05,-0.01,-0.06,0.01,34.72
-0.07,0.27,10.04,-0.01,-0.04,0.01,34.7
-0.07,0.27,10.08,-0.01,-0.05,0.01,34.7
-0.02,0.23,9.99,0.0,-0.06,0.01,34.7
-0.09,0.28,10.07,-0.01,-0.05,0.02,34.72
-0.07,0.28,10.04,-0.01,-0.05,0.01,34.7
-0.02,0.3,10.08,-0.0,-0.05,0.01,34.7
-0.06,0.27,10.05,-0.01,-0.05,0.01,34.71
-0.05,0.26,10.07,-0.01,-0.05,0.01,34.69
-0.04,0.28,10.05,-0.01,-0.05,0.01,34.69
-0.06,0.26,10.08,-0.01,-0.04,0.02,34.71
-0.07,0.27,10.05,-0.01,-0.05,0.01,34.69
-0.07,0.3,10.06,-0.01,-0.05,0.01,34.69
-0.0,0.28,10.05,-0.0,-0.04,0.01,34.71
-0.13,0.31,10.09,-0.0,-0.05,0.01,34.69
-0.08,0.26,10.1,-0.02,-0.05,0.01,34.72
0.03,0.26,10.06,-0.01,-0.03,0.02,34.7
-0.08,0.28,10.05,-0.01,-0.05,0.01,34.7
-0.06,0.29,10.06,-0.01,-0.05,0.01,34.68
-0.09,0.29,10.05,-0.01,-0.05,0.01,34.68
-0.07,0.23,10.1,0.01,-0.06,0.01,34.68
-0.06,0.25,10.08,-0.01,-0.05,0.01,34.69
-0.08,0.28,10.02,-0.01,-0.05,0.01,34.69
-0.06,0.27,10.03,-0.01,-0.05,0.01,34.69
-0.03,0.28,10.03,-0.01,-0.03,0.01,34.68
-0.1,0.27,10.06,-0.01,-0.05,0.01,34.69
-0.21,0.62,10.08,-0.03,-0.09,0.06,34.67
0.07,0.39,10.15,0.02,-0.01,0.01,34.69
-0.01,0.7,9.97,0.02,-0.04,0.01,34.68
0.09,0.43,10.05,-0.01,-0.05,-0.0,34.69
0.1,0.33,9.78,-0.02,-0.01,0.0,34.69
-0.45,0.62,10.05,0.01,-0.04,-0.01,34.7
-0.08,1.39,9.93,-0.05,-0.05,0.0,34.71
-0.07,0.42,10.01,-0.02,-0.05,0.01,34.69
-0.05,0.48,10.02,-0.01,-0.06,0.01,34.69
0.01,0.5,10.02,-0.01,-0.03,0.02,34.7
-0.04,0.5,10.03,-0.01,-0.05,0.01,34.69
-0.01,0.47,10.06,-0.01,-0.05,0.01,34.7
-0.04,0.48,10.03,-0.01,-0.05,0.02,34.7
-0.04,0.48,10.02,-0.01,-0.05,0.01,34.69
-0.04,0.47,10.07,-0.01,-0.05,0.01,34.68
-0.02,0.46,10.04,-0.01,-0.05,0.01,34.72
-0.06,0.46,10.05,-0.01,-0.05,0.02,34.7
-0.04,0.48,10.05,-0.01,-0.05,0.01,34.67
-0.03,0.46,10.05,-0.01,-0.05,0.01,34.7
-0.04,0.49,10.02,-0.01,-0.05,0.02,34.68
-0.05,0.48,10.07,-0.01,-0.05,0.01,34.69
-0.02,0.51,10.11,0.01,-0.05,0.01,34.69
-0.02,0.47,10.05,-0.01,-0.05,0.01,34.68
-0.01,0.45,10.03,-0.0,-0.03,0.01,34.68
-0.04,0.49,10.04,-0.01,-0.05,0.01,34.7
-0.04,0.48,10.04,-0.01,-0.05,0.01,34.68
-0.0,0.45,10.02,-0.01,-0.04,0.01,34.67
-0.04,0.48,10.03,-0.01,-0.05,0.01,34.71
-0.03,0.45,10.07,-0.01,-0.05,0.01,34.68
0.01,0.45,10.05,-0.01,-0.03,0.01,34.68
-0.07,0.47,10.05,-0.01,-0.05,0.01,34.69
-0.01,0.47,10.01,-0.01,-0.05,0.01,34.69
-0.03,0.46,10.03,-0.01,-0.04,0.02,34.69
-0.04,0.51,10.04,-0.01,-0.05,0.01,34.69
-0.05,0.48,10.05,-0.01,-0.05,0.01,34.68
0.0,0.45,10.03,-0.01,-0.05,0.01,34.69
-0.03,0.47,10.04,-0.01,-0.05,0.01,34.68
-0.02,0.45,9.93,-0.03,-0.06,0.01,34.67
-0.09,0.45,10.1,-0.02,-0.05,0.02,34.68
-0.02,0.49,10.07,-0.01,-0.05,0.01,34.7
-0.01,0.46,10.06,-0.01,-0.05,0.01,34.69
-0.04,0.47,9.99,-0.01,-0.05,0.01,34.69
-0.07,0.47,10.01,-0.01,-0.05,0.01,34.69
-0.0,0.49,10.04,-0.01,-0.05,0.01,34.68
-0.02,0.47,10.05,-0.01,-0.05,0.01,34.67
-0.02,0.48,10.03,-0.01,-0.04,0.01,34.66
-0.05,0.47,10.04,-0.01,-0.05,0.01,34.67
-0.01,0.49,10.04,-0.01,-0.05,0.01,34.7
-0.03,0.46,10.04,-0.01,-0.05,0.01,34.69
-0.06,0.48,10.02,-0.01,-0.05,0.01,34.67
0.05,0.44,10.0,-0.01,-0.06,0.01,34.69
0.01,0.46,9.9,-0.01,-0.06,0.01,34.66
-0.03,0.46,10.05,-0.02,-0.06,0.01,34.68
-0.03,0.47,10.07,-0.0,-0.05,0.02,34.68
0.0,0.51,10.01,-0.01,-0.05,0.01,34.68
-0.02,0.45,10.06,-0.01,-0.05,0.01,34.66
-0.03,0.48,10.03,-0.0,-0.05,0.02,34.67
-0.04,0.51,10.04,-0.01,-0.05,0.01,34.64
-0.04,0.48,10.07,-0.01,-0.05,0.01,34.67
0.01,0.49,10.06,-0.01,-0.04,0.01,34.68
-0.0,0.49,10.03,-0.01,-0.05,0.01,34.67
-0.02,0.46,10.02,-0.01,-0.05,0.01,34.67
-0.01,0.45,10.05,-0.01,-0.04,0.01,34.67
-0.04,0.48,10.03,-0.01,-0.05,0.01,34.66
-0.03,0.49,10.03,-0.01,-0.05,0.01,34.68
0.01,0.46,10.03,-0.01,-0.04,0.01,34.66
-0.01,0.48,10.03,-0.01,-0.05,0.01,34.68
-0.03,0.48,10.02,-0.01,-0.05,0.01,34.66
-0.0,0.46,10.05,-0.01,-0.05,0.01,34.67
-0.05,0.49,10.03,-0.01,-0.05,0.01,34.66
-0.02,0.48,10.06,-0.0,-0.05,0.01,34.66
0.04,0.46,9.91,-0.03,-0.06,0.01,34.66
0.02,0.51,9.99,-0.01,-0.05,0.02,34.67
-0.06,0.47,10.08,-0.02,-0.04,0.02,34.64
-0.03,0.45,10.08,-0.02,-0.06,0.01,34.67
-0.01,0.46,10.05,-0.01,-0.05,0.02,34.66
-0.04,0.5,10.05,-0.01,-0.05,0.01,34.69
0.01,0.47,10.06,-0.01,-0.05,0.01,34.66
-0.05,0.48,10.07,-0.01,-0.04,0.02,34.67
-0.06,0.45,10.11,0.0,-0.04,0.01,34.66
-0.05,0.5,10.14,0.0,-0.05,0.01,34.66
-0.02,0.47,10.07,-0.0,-0.05,0.02,34.68
-0.04,0.48,10.06,-0.0,-0.05,0.01,34.68
0.0,0.45,10.03,-0.01,-0.05,0.01,34.67
-0.06,0.46,10.03,-0.01,-0.05,0.01,34.66
-0.04,0.49,10.06,-0.01,-0.05,0.01,34.69
-0.03,0.49,10.06,-0.01,-0.05,0.01,34.67
-0.04,0.5,10.04,-0.01,-0.04,0.02,34.66
-0.05,0.48,10.04,-0.01,-0.05,0.01,34.67
-0.04,0.48,10.02,-0.01,-0.05,0.01,34.67
-0.05,0.45,10.07,-0.01,-0.04,0.02,34.65
-0.05,0.47,10.04,-0.01,-0.05,0.01,34.66
-0.04,0.42,10.02,-0.0,-0.05,0.01,34.67
0.01,0.45,9.96,-0.0,-0.04,0.02,34.67
0.0,0.49,10.03,-0.01,-0.05,0.01,34.66
-0.01,0.47,10.06,-0.01,-0.05,0.01,34.66
0.03,0.47,10.06,-0.0,-0.05,0.01,34.66
-0.05,0.5,10.06,-0.01,-0.05,0.01,34.67
-0.02,0.48,10.04,-0.01,-0.05,0.01,34.65
0.01,0.48,10.09,-0.0,-0.03,0.01,34.65
-0.03,0.47,10.03,-0.01,-0.05,0.01,34.65
-0.01,0.47,10.03,-0.01,-0.05,0.01,34.68
-0.03,0.45,10.03,-0.01,-0.05,0.01,34.67
-0.04,0.49,10.07,-0.01,-0.05,0.01,34.67
-0.0,0.44,10.02,-0.01,-0.05,0.01,34.68
-0.03,0.47,10.04,-0.01,-0.05,0.01,34.67
-0.04,0.47,10.08,-0.01,-0.05,0.01,34.64
-0.01,0.46,10.04,-0.01,-0.05,0.01,34.66
-0.04,0.48,10.02,-0.01,-0.05,0.01,34.66
-0.05,0.49,10.04,-0.01,-0.05,0.01,34.64
-0.01,0.45,10.09,-0.01,-0.06,0.01,34.67
-0.05,0.44,10.04,-0.01,-0.05,0.01,34.65
-0.01,0.49,10.0,0.01,-0.06,0.01,34.65
-0.05,0.45,10.1,-0.02,-0.05,0.01,34.67
-0.03,0.49,10.03,-0.01,-0.05,0.01,34.67
-0.04,0.48,10.03,-0.01,-0.05,0.01,34.66
-0.03,0.48,10.04,-0.01,-0.05,0.01,34.68
0.0,0.44,10.06,-0.01,-0.05,0.01,34.65
-0.05,0.47,10.06,-0.01,-0.05,0.02,34.66
-0.04,0.49,10.03,-0.01,-0.05,0.01,34.65
-0.04,0.46,10.04,-0.01,-0.05,0.01,34.65
-0.02,0.45,10.08,-0.01,-0.05,0.01,34.64
-0.05,0.47,10.02,-0.01,-0.05,0.01,34.64
-0.04,0.51,10.08,-0.01,-0.05,0.01,34.65
0.02,0.48,10.07,-0.03,-0.06,0.01,34.66
-0.02,0.48,9.95,0.0,-0.06,0.01,34.65
-0.03,0.49,10.09,-0.0,-0.05,0.01,34.64
0.04,0.48,10.0,-0.02,-0.05,0.01,34.65
-0.01,0.48,10.02,-0.01,-0.05,0.02,34.67
-0.03,0.48,10.06,-0.01,-0.05,0.01,34.66
0.02,0.45,10.05,-0.01,-0.04,0.01,34.67
-0.01,0.49,9.96,-0.01,-0.05,0.01,34.66
-0.08,0.51,10.08,-0.0,-0.05,0.01,34.67
-0.03,0.46,10.07,-0.01,-0.05,0.01,34.66
0.01,0.49,10.05,-0.01,-0.05,0.02,34.66
-0.06,0.49,10.09,-0.01,-0.06,0.01,34.66
0.02,0.47,10.02,-0.01,-0.05,0.01,34.68
-0.05,0.49,10.05,-0.01,-0.05,0.01,34.66
0.0,0.48,10.02,-0.01,-0.05,0.01,34.64
-0.04,0.48,10.04,-0.01,-0.05,0.02,34.64
-0.04,0.48,10.01,-0.01,-0.05,0.01,34.65
-0.03,0.48,10.05,-0.01,-0.05,0.01,34.65
-0.02,0.49,10.03,-0.01,-0.03,0.02,34.66
-0.06,0.48,10.06,-0.01,-0.05,0.01,34.64
0.01,0.47,10.04,-0.01,-0.05,0.01,34.65
-0.0,0.48,10.07,-0.0,-0.04,0.02,34.63
-0.07,0.49,10.07,-0.0,-0.04,0.01,34.66
0.07,0.49,9.99,-0.02,-0.05,0.01,34.64
-0.02,0.48,10.01,-0.01,-0.05,0.02,34.65
-0.04,0.49,9.98,-0.01,-0.05,0.02,34.66
0.02,0.45,10.02,-0.01,-0.06,0.01,34.64
-0.03,0.48,10.05,-0.01,-0.05,0.02,34.65
0.02,0.47,10.04,-0.01,-0.05,0.01,34.66
-0.05,0.5,10.07,-0.01,-0.04,0.02,34.64
-0.06,0.45,10.07,-0.01,-0.04,0.01,34.65
-0.02,0.45,10.07,-0.01,-0.05,0.01,34.64
-0.02,0.47,10.03,-0.01,-0.05,0.02,34.66
-0.02,0.46,10.07,-0.01,-0.05,0.01,34.66
-0.01,0.46,10.03,-0.01,-0.05,0.01,34.66
0.01,0.47,10.01,-0.01,-0.04,0.01,34.64
-0.06,0.48,10.03,-0.01,-0.05,0.01,34.64
-0.06,0.47,10.06,-0.01,-0.05,0.01,34.65
-0.0,0.46,10.01,-0.01,-0.05,0.01,34.64
-0.0,0.49,10.06,-0.01,-0.05,0.02,34.63
-0.03,0.48,10.04,-0.01,-0.05,0.01,34.66
-0.01,0.47,10.08,-0.01,-0.04,0.02,34.66
-0.03,0.46,10.07,-0.01,-0.05,0.01,34.65
-0.01,0.5,10.06,-0.01,-0.05,0.01,34.66
0.01,0.48,10.07,-0.01,-0.05,0.01,34.67
-0.06,0.47,10.05,-0.01,-0.05,0.01,34.65
-0.03,0.44,10.04,-0.01,-0.05,0.01,34.65
-0.04,0.47,10.06,-0.01,-0.05,0.02,34.64
-0.05,0.49,10.05,-0.01,-0.05,0.01,34.66
-0.06,0.45,10.06,-0.01,-0.05,0.01,34.65
-0.03,0.46,10.04,-0.01,-0.05,0.01,34.65
-0.05,0.44,9.9,-0.02,-0.05,0.01,34.67
-0.03,0.47,10.03,-0.01,-0.05,0.01,34.65
-0.08,0.44,10.11,-0.02,-0.04,0.02,34.66
-0.0,0.47,10.0,-0.01,-0.05,0.02,34.64
-0.02,0.47,10.01,-0.02,-0.04,0.0,34.65
-0.05,0.37,10.02,-0.01,-0.05,0.01,34.66
-0.08,0.37,10.04,-0.01,-0.04,0.01,34.64
-0.08,0.47,10.05,-0.01,-0.05,0.01,34.66
-0.03,0.39,10.07,-0.01,-0.04,0.01,34.64
-0.04,0.43,10.03,-0.01,-0.05,0.01,34.66
-0.06,0.46,10.05,-0.01,-0.05,0.01,34.64
-0.05,0.46,10.07,-0.01,-0.05,0.01,34.65
-0.0,0.44,10.06,-0.01,-0.05,0.01,34.64
-0.05,0.43,9.93,-0.02,-0.05,0.01,34.65
-0.04,0.45,10.06,-0.01,-0.05,0.01,34.65
-0.02,0.43,9.89,-0.03,-0.06,0.01,34.64
-0.06,0.48,10.05,0.0,-0.05,0.01,34.66
-0.05,0.48,9.98,0.01,-0.06,0.01,34.63
-0.01,0.46,9.94,0.01,-0.06,0.01,34.65
-0.08,0.44,10.07,-0.01,-0.05,0.02,34.65
-0.02,0.47,10.04,-0.02,-0.05,0.01,34.67
0.04,0.43,9.95,0.0,-0.04,0.01,34.64
-0.06,0.46,10.06,-0.01,-0.05,0.02,34.65
-0.02,0.45,10.01,-0.01,-0.05,0.01,34.66
0.0,0.42,10.05,-0.01,-0.03,0.02,34.65
-0.01,0.49,10.04,-0.01,-0.05,0.01,34.64
-0.04,0.47,10.07,-0.01,-0.05,0.01,34.64
-0.03,0.44,10.02,-0.01,-0.04,0.01,34.65
-0.04,0.48,10.07,-0.01,-0.05,0.01,34.64
-0.02,0.45,10.04,-0.01,-0.05,0.01,34.65
-0.02,0.45,10.02,-0.01,-0.04,0.02,34.64
-0.06,0.49,10.04,-0.01,-0.05,0.01,34.63
-0.12,0.42,9.94,-0.0,-0.04,0.01,34.64
-0.43,0.48,10.15,-0.04,-0.09,0.01,34.63
0.14,-0.02,10.18,-0.01,-0.07,0.02,34.63
0.03,0.38,10.07,0.01,-0.05,0.01,34.64
0.07,0.34,10.07,-0.0,-0.05,0.01,34.65
-0.04,0.26,10.04,-0.01,-0.05,0.01,34.64
0.1,0.36,10.18,-0.02,-0.05,0.01,34.64
0.01,0.33,10.01,-0.01,-0.05,0.01,34.64
0.05,0.33,9.97,-0.01,-0.06,0.01,34.66
0.02,0.3,10.1,-0.03,-0.03,0.01,34.65
-0.07,0.3,10.09,-0.02,-0.05,0.02,34.66
0.05,0.3,9.93,-0.01,-0.06,0.01,34.65
0.01,0.36,10.17,-0.02,-0.05,0.01,34.65
-0.07,0.3,10.07,-0.0,-0.04,0.01,34.64
-0.03,0.29,10.03,-0.01,-0.05,0.01,34.65
-0.03,0.3,10.03,-0.01,-0.05,0.01,34.63
-0.03,0.32,10.02,-0.01,-0.05,0.01,34.63
-0.02,0.33,10.05,-0.01,-0.05,0.01,34.62
0.0,0.29,10.03,-0.01,-0.05,0.01,34.65
-0.05,0.33,10.1,0.0,-0.04,0.01,34.64
-0.02,0.32,10.07,-0.01,-0.05,0.01,34.64
-0.0,0.28,10.04,-0.01,-0.05,0.01,34.64
0.01,0.3,10.08,-0.01,-0.04,0.02,34.64
-0.02,0.3,10.07,-0.01,-0.06,0.01,34.63
-0.0,0.32,10.07,-0.0,-0.03,0.01,34.63
0.01,0.31,9.99,-0.01,-0.06,0.01,34.63
-0.03,0.32,10.1,-0.02,-0.04,0.02,34.63
-0.05,0.28,10.09,-0.02,-0.05,0.01,34.64
0.09,0.07,10.0,0.06,-0.05,0.09,34.64
-0.22,0.01,9.89,-0.06,-0.09,0.01,34.66
-0.36,0.56,10.04,0.01,-0.05,0.0,34.62
0.03,0.33,10.07,0.0,-0.06,0.02,34.64
-0.02,0.38,10.07,-0.04,-0.07,0.01,34.63
0.01,0.43,9.99,-0.01,-0.06,0.02,34.64
0.05,0.42,10.06,-0.01,-0.04,0.01,34.63
-0.07,0.45,10.07,-0.0,-0.04,0.01,34.62
-0.02,0.47,10.05,-0.01,-0.05,0.01,34.61
0.06,0.44,10.07,-0.01,-0.05,0.01,34.63
-0.03,0.46,10.06,-0.01,-0.05,0.01,34.62
-0.02,0.46,10.08,-0.01,-0.05,0.01,34.63
0.03,0.43,10.05,-0.01,-0.06,0.02,34.63
-0.0,0.44,9.99,-0.01,-0.05,0.02,34.65
-0.1,0.45,10.07,-0.01,-0.04,0.01,34.62
-0.06,0.48,10.1,-0.0,-0.05,0.01,34.64
0.0,0.46,10.09,-0.0,-0.03,0.01,34.62
-0.06,0.44,10.06,-0.0,-0.04,0.01,34.64
-0.04,0.44,10.01,-0.01,-0.05,0.01,34.62
-0.02,0.45,10.06,-0.01,-0.06,0.01,34.62
-0.07,0.46,10.05,-0.0,-0.05,0.01,34.63
0.06,0.44,9.9,-0.01,-0.06,0.01,34.62
0.08,0.47,10.06,-0.02,-0.04,0.01,34.63
-0.09,0.45,10.07,-0.01,-0.04,0.01,34.63
-0.1,0.42,10.09,-0.01,-0.04,0.01,34.62
-0.01,0.46,10.08,-0.02,-0.05,0.01,34.62
-0.12,0.42,10.1,-0.01,-0.05,0.02,34.65
-0.04,0.43,10.08,-0.02,-0.06,0.02,34.66
-0.02,0.44,10.03,-0.01,-0.04,0.02,34.63
-0.03,0.44,10.0,-0.01,-0.05,0.02,34.62
0.06,0.43,10.05,-0.01,-0.05,0.01,34.63
-0.05,0.41,10.01,-0.01,-0.04,0.01,34.64
0.0,0.44,10.04,-0.01,-0.05,0.01,34.63
0.03,0.45,10.08,-0.01,-0.05,0.01,34.63
-0.04,0.45,10.08,-0.01,-0.05,0.01,34.63
-0.05,0.46,10.06,-0.01,-0.05,0.01,34.64
0.02,0.45,10.09,-0.01,-0.03,0.01,34.64
0.0,0.43,10.01,-0.01,-0.05,0.01,34.63
-0.02,0.44,10.04,-0.01,-0.05,0.01,34.64
0.01,0.49,10.21,-0.01,-0.04,0.01,34.62
-0.03,0.44,10.05,0.0,-0.03,0.01,34.62
-0.02,0.51,10.23,-0.01,-0.04,0.01,34.64
-0.08,0.45,10.07,-0.01,-0.05,0.01,34.63
-0.04,0.45,10.06,-0.01,-0.05,0.01,34.64
-0.01,0.45,10.05,-0.01,-0.05,0.01,34.63
-0.06,0.43,10.05,-0.01,-0.04,0.01,34.63
-0.04,0.46,10.05,-0.01,-0.05,0.01,34.63
-0.03,0.43,10.03,-0.01,-0.05,0.01,34.63
-0.04,0.46,10.03,-0.01,-0.04,0.01,34.62
-0.02,0.46,10.05,-0.01,-0.05,0.01,34.62
-0.04,0.47,10.08,-0.01,-0.05,0.01,34.6
-0.02,0.47,10.06,-0.01,-0.05,0.01,34.62
-0.0,0.45,10.05,-0.01,-0.03,0.01,34.62
-0.07,0.48,10.06,-0.01,-0.05,0.01,34.62
-0.01,0.45,10.07,-0.01,-0.05,0.01,34.62
-0.02,0.45,10.06,-0.01,-0.03,0.01,34.6
-0.05,0.44,10.04,-0.01,-0.05,0.01,34.6
-0.05,0.45,10.05,-0.01,-0.05,0.01,34.64
0.03,0.44,10.03,-0.01,-0.05,0.01,34.63
-0.06,0.45,10.04,-0.01,-0.05,0.01,34.63
-0.04,0.47,10.05,-0.01,-0.05,0.01,34.62
-0.0,0.46,10.08,-0.01,-0.04,0.01,34.63
-0.04,0.47,10.06,-0.01,-0.05,0.01,34.62
-0.04,0.44,10.07,-0.01,-0.05,0.01,34.63
-0.01,0.44,10.04,-0.01,-0.05,0.01,34.62
-0.04,0.46,10.04,-0.01,-0.05,0.01,34.64
-0.02,0.45,10.07,-0.01,-0.05,0.01,34.63
0.02,0.44,10.05,-0.0,-0.04,0.01,34.62
0.0,0.49,10.18,-0.02,-0.04,0.01,34.62
-0.02,0.48,10.08,-0.03,-0.05,0.01,34.64
0.01,0.45,10.06,0.0,-0.04,0.01,34.61
-0.05,0.47,10.04,0.0,-0.04,0.01,34.62
-0.06,0.46,10.0,-0.01,-0.05,0.01,34.62
-0.02,0.46,10.05,-0.01,-0.06,0.01,34.62
-0.04,0.46,10.04,-0.01,-0.05,0.01,34.64
-0.04,0.45,10.03,-0.01,-0.05,0.01,34.62
-0.03,0.46,10.06,-0.01,-0.05,0.01,34.6
-0.02,0.45,10.06,-0.01,-0.04,0.01,34.61
-0.05,0.44,10.04,-0.01,-0.05,0.01,34.61
-0.02,0.45,10.04,-0.01,-0.05,0.01,34.62
-0.07,0.46,10.02,-0.01,-0.05,0.01,34.63
0.01,0.46,10.04,-0.01,-0.05,0.01,34.64
-0.04,0.45,10.04,-0.01,-0.05,0.01,34.64
-0.04,0.47,10.02,-0.01,-0.05,0.01,34.62
-0.02,0.43,10.08,-0.01,-0.05,0.01,34.63
-0.02,0.43,9.9,-0.03,-0.05,0.01,34.63
-0.03,0.46,10.11,-0.01,-0.04,0.01,34.62
0.06,0.43,10.05,-0.01,-0.05,0.01,34.63
-0.01,0.45,10.01,-0.01,-0.05,0.02,34.63
-0.03,0.43,10.05,-0.01,-0.05,0.01,34.64
0.09,0.45,9.97,-0.01,-0.05,0.01,34.63
-0.02,0.47,10.05,-0.01,-0.05,0.01,34.61
-0.02,0.41,9.95,-0.01,-0.06,0.02,34.62
-0.04,0.47,10.02,-0.01,-0.05,0.01,34.64
0.04,0.48,10.05,-0.01,-0.05,0.01,34.64
-0.02,0.47,10.08,-0.01,-0.05,0.01,34.63
-0.02,0.46,10.09,-0.01,-0.05,0.01,34.62
-0.05,0.45,10.03,-0.01,-0.05,0.01,34.62
-0.06,0.46,10.02,-0.01,-0.05,0.01,34.61
0.01,0.45,10.08,-0.0,-0.04,0.01,34.63
-0.01,0.46,10.05,-0.01,-0.03,0.01,34.62
-0.04,0.47,10.02,-0.01,-0.05,0.01,34.62
-0.04,0.45,10.03,-0.01,-0.05,0.01,34.61
-0.01,0.45,10.05,-0.01,-0.06,0.01,34.64
-0.06,0.46,10.07,-0.01,-0.05,0.01,34.62
-0.03,0.45,10.05,-0.01,-0.05,0.01,34.62
-0.03,0.43,10.02,-0.01,-0.05,0.01,34.63
-0.06,0.47,10.02,0.01,-0.05,0.01,34.64
-0.02,0.46,9.97,0.0,-0.06,0.01,34.64
-0.05,0.46,10.02,0.01,-0.05,0.01,34.63
-0.06,0.48,10.09,-0.01,-0.04,0.01,34.62
-0.05,0.47,10.13,-0.01,-0.05,0.01,34.62
-0.1,0.43,10.08,-0.02,-0.05,0.01,34.61
-0.02,0.44,10.02,-0.01,-0.04,0.02,34.63
-0.03,0.45,10.06,-0.01,-0.05,0.01,34.62
0.05,0.48,10.03,-0.02,-0.05,0.01,34.63
0.06,0.45,9.98,-0.02,-0.04,0.01,34.63
0.0,0.44,9.92,-0.01,-0.06,0.01,34.62
-0.03,0.51,10.22,-0.0,-0.04,0.01,34.63
0.0,0.45,10.07,0.0,-0.05,0.01,34.63
-0.03,0.47,10.07,-0.01,-0.05,0.01,34.63
-0.12,0.43,10.11,-0.02,-0.05,0.01,34.61
0.04,0.43,10.05,-0.01,-0.03,0.01,34.62
-0.03,0.45,10.04,-0.01,-0.05,0.01,34.62
-0.04,0.45,10.02,-0.01,-0.05,0.01,34.62
-0.04,0.44,10.05,-0.01,-0.03,0.01,34.6
-0.09,0.48,10.14,0.0,-0.04,0.01,34.61
-0.08,0.49,10.13,0.0,-0.04,0.01,34.63
-0.04,0.42,10.05,-0.01,-0.03,0.01,34.62
-0.0,0.45,10.01,-0.01,-0.05,0.01,34.62
-0.06,0.48,10.04,0.01,-0.05,0.01,34.61
-0.3,1.58,10.09,-0.15,-0.11,0.12,34.63
-0.09,0.48,10.02,0.01,-0.08,0.03,34.62
-0.37,0.27,10.01,-0.02,-0.07,0.01,34.63
0.05,0.29,10.03,0.02,0.02,0.03,34.63
0.15,0.29,10.04,-0.02,-0.08,0.02,34.61
-0.17,0.44,10.06,-0.01,-0.04,0.04,34.62
0.1,0.12,9.9,-0.0,-0.08,0.01,34.61
-0.01,0.21,10.09,-0.02,-0.03,0.01,34.6
-0.01,0.25,10.07,-0.01,-0.05,0.02,34.62
0.03,0.25,10.12,-0.01,-0.05,0.01,34.63
0.06,0.26,10.06,-0.02,-0.05,0.01,34.6
-0.0,0.23,9.98,-0.02,-0.05,0.01,34.63
0.0,0.27,10.05,-0.01,-0.06,0.01,34.62
0.07,0.23,10.03,-0.01,-0.04,0.01,34.62
0.01,0.24,10.04,-0.01,-0.05,0.01,34.64
0.02,0.24,10.08,-0.01,-0.05,0.01,34.63
0.05,0.22,10.06,-0.0,-0.05,0.01,34.63
0.01,0.24,10.09,-0.01,-0.05,0.01,34.62
0.03,0.27,10.08,-0.01,-0.05,0.01,34.64
0.06,0.23,10.1,-0.01,-0.05,0.01,34.64
0.04,0.26,10.07,-0.03,-0.05,0.01,34.63
0.03,0.23,10.02,-0.01,-0.04,0.01,34.63
0.06,0.24,10.03,-0.01,-0.04,0.01,34.63
-0.01,0.24,10.08,-0.01,-0.05,0.01,34.63
-0.0,0.22,10.05,-0.01,-0.05,0.01,34.62
0.12,0.22,9.93,-0.01,-0.05,0.01,34.63
0.02,0.25,10.07,-0.01,-0.05,0.01,34.64
0.0,0.27,10.07,-0.0,-0.05,0.01,34.65
0.05,0.26,10.09,-0.01,-0.03,0.01,34.63
0.03,0.23,10.06,-0.01,-0.05,0.01,34.62
0.02,0.25,10.1,-0.0,-0.05,0.01,34.62
0.04,0.24,10.06,-0.01,-0.06,0.01,34.62
0.01,0.22,10.03,-0.01,-0.05,0.01,34.64
0.01,0.25,10.07,-0.01,-0.05,0.01,34.62
-0.0,0.27,10.07,-0.01,-0.04,0.01,34.65
0.02,0.25,10.04,-0.01,-0.05,0.01,34.63
0.06,0.23,10.04,-0.01,-0.05,0.01,34.63
0.03,0.23,10.04,-0.01,-0.05,0.01,34.64
0.03,0.25,10.04,-0.01,-0.05,0.01,34.64
0.04,0.24,10.04,-0.01,-0.05,0.01,34.62
0.04,0.23,10.08,-0.01,-0.04,0.01,34.63
0.01,0.23,10.09,-0.01,-0.05,0.01,34.64
-0.01,0.22,10.07,-0.01,-0.05,0.01,34.64
0.09,0.23,10.05,-0.01,-0.05,0.01,34.64
0.0,0.23,10.07,-0.01,-0.05,0.01,34.63
0.01,0.24,10.09,-0.01,-0.05,0.01,34.63
0.09,0.27,10.08,-0.0,-0.05,0.01,34.62
0.02,0.25,10.07,-0.01,-0.05,0.01,34.62
0.01,0.22,10.05,-0.01,-0.05,0.01,34.62
0.04,0.21,10.06,-0.01,-0.05,0.01,34.63
0.03,0.22,10.07,-0.01,-0.04,0.01,34.63
0.03,0.23,10.01,-0.01,-0.05,0.01,34.62
0.02,0.22,10.07,-0.01,-0.05,0.02,34.63
0.07,-0.09,9.96,0.11,-0.07,0.04,34.63
0.03,0.16,10.08,-0.01,-0.04,0.01,34.61
-0.02,0.34,10.03,-0.03,-0.06,0.01,34.63
-0.05,0.33,10.06,-0.01,-0.05,0.01,34.62
0.1,0.11,10.07,-0.01,-0.05,0.01,34.62
-0.08,1.47,10.3,-0.06,-0.31,0.25,34.63
-0.09,-0.81,10.21,-0.04,-0.02,0.05,34.63
0.31,-0.04,10.0,-0.07,-0.05,0.01,34.61
0.33,0.19,10.09,0.0,-0.19,0.11,34.62
0.17,-3.47,9.31,-0.59,-0.21,-0.19,34.64
0.31,-4.55,8.8,-0.07,-0.11,0.1,34.62
0.31,-4.43,9.07,-0.03,-0.06,0.01,34.64
0.39,-4.23,9.11,-0.01,-0.05,0.02,34.62
0.39,-4.06,9.22,0.0,-0.03,-0.0,34.64
0.37,-4.2,9.19,-0.0,-0.05,0.03,34.64
0.42,-4.21,9.14,-0.01,-0.05,0.01,34.62
0.32,-4.17,9.11,0.01,-0.04,0.02,34.64
0.53,-4.3,9.11,-0.01,-0.07,0.02,34.63
0.34,-4.28,9.14,-0.01,-0.04,0.01,34.63
0.38,-4.25,9.11,0.01,-0.04,0.0,34.64
0.47,-4.24,9.07,-0.01,-0.05,0.01,34.63
0.36,-4.21,9.11,-0.01,-0.04,0.01,34.65
0.3,-3.95,9.21,0.02,-0.06,-0.0,34.61
0.41,-3.78,9.35,0.04,-0.05,-0.0,34.63
0.3,-3.85,9.3,-0.01,-0.05,0.01,34.64
0.43,-3.64,9.51,-0.04,-0.05,0.02,34.64
0.38,-3.65,9.36,-0.01,-0.06,0.01,34.63
0.43,-3.69,9.33,0.0,-0.04,0.01,34.63
0.37,-3.64,9.39,-0.01,-0.04,0.01,34.63
0.4,-3.6,9.38,-0.03,-0.07,0.02,34.64
0.42,-3.6,9.42,-0.02,-0.05,0.01,34.64
0.02,-3.55,9.31,0.3,0.03,-0.14,34.63
0.26,0.34,9.89,-0.12,-0.03,0.06,34.65
0.28,-1.13,10.07,0.02,-0.03,0.01,34.62
0.34,-0.85,10.06,-0.02,-0.05,0.02,34.64
0.24,-0.99,10.02,-0.0,-0.04,0.02,34.64
0.21,-1.02,9.93,-0.03,-0.07,0.02,34.64
0.26,-0.96,10.02,-0.02,-0.05,0.01,34.63
0.4,-0.98,10.04,-0.01,-0.06,0.02,34.66
0.32,-1.01,10.02,-0.01,-0.05,0.01,34.64
0.28,-0.97,10.04,-0.01,-0.05,0.01,34.65
0.38,-0.97,10.05,-0.0,-0.05,0.01,34.66
0.31,-0.99,10.04,-0.01,-0.04,0.01,34.64
0.28,-0.98,10.02,-0.01,-0.05,0.01,34.65
0.38,-0.98,10.04,-0.01,-0.06,0.01,34.66
0.53,-1.65,9.91,-0.34,-0.09,0.17,34.65
0.38,-4.7,8.82,0.1,-0.0,0.01,34.65
0.14,-3.4,9.37,0.48,-0.01,-0.07,34.65
0.23,-1.29,9.97,-0.06,-0.05,0.0,34.65
0.54,-1.74,9.62,0.14,-0.08,-0.02,34.66
0.41,-1.53,9.84,0.19,-0.06,-0.15,34.65
0.33,-1.44,10.01,-0.08,-0.07,0.02,34.66
0.31,-1.24,10.01,0.03,-0.03,-0.01,34.64
0.32,-1.13,10.01,-0.01,-0.05,0.01,34.67
0.37,-1.15,10.05,-0.01,-0.05,0.01,34.66
0.29,-1.12,9.98,-0.01,-0.05,0.01,34.66
0.28,-1.13,9.89,-0.03,-0.06,0.01,34.64
0.38,-1.14,10.01,-0.02,-0.05,0.01,34.66
0.28,-1.11,10.07,-0.0,-0.04,0.01,34.67
0.3,-1.08,10.1,-0.01,-0.04,0.01,34.67
0.33,-1.04,9.91,0.0,-0.06,0.01,34.65
0.4,-1.06,10.03,0.01,-0.05,0.01,34.66
0.33,-1.03,9.93,0.0,-0.06,0.01,34.67
0.33,-1.0,10.23,-0.01,-0.05,0.01,34.67
0.41,-0.96,10.16,-0.02,-0.03,0.02,34.67
0.26,-0.98,10.06,-0.0,-0.05,0.01,34.68
0.33,-1.01,9.91,-0.03,-0.07,0.02,34.68
0.3,-0.93,10.17,-0.0,-0.03,0.01,34.67
0.3,-0.9,10.18,-0.0,-0.04,0.01,34.69
0.37,-0.98,10.06,-0.02,-0.06,0.01,34.69
0.34,-0.95,9.89,-0.0,-0.05,0.01,34.68
0.4,-0.96,10.01,-0.01,-0.05,0.01,34.67
0.31,-0.94,10.05,-0.01,-0.04,0.02,34.67
0.31,-0.91,10.04,-0.01,-0.05,0.01,34.68
0.4,-0.95,10.06,-0.02,-0.05,0.01,34.67