accel_x,accel_y,accel_z,gyro_x,gyro_y,gyro_z,temperature
-8.78,0.43,2.86,0.06,0.04,-0.08,32.64
-8.44,0.75,2.59,-0.27,0.07,0.24,32.66
-8.87,1.26,2.62,0.03,-0.13,0.01,32.65
-8.78,1.17,2.55,-0.09,0.24,0.01,32.65
-8.94,1.41,2.36,0.11,-0.19,0.0,32.64
-9.36,0.8,1.14,0.83,0.09,-0.46,32.65
-9.22,-0.49,1.0,0.54,-0.0,-0.2,32.67
-8.97,0.1,1.93,0.11,0.12,0.15,32.69
-8.96,0.59,2.71,0.41,-0.29,-0.2,32.67
-8.86,-1.47,1.28,0.02,0.1,0.05,32.67
-9.23,-0.09,1.84,0.02,-0.13,0.1,32.68
-8.93,0.12,2.86,-0.08,-0.06,0.0,32.66
-9.29,0.23,2.54,-0.13,-0.06,0.07,32.7
-8.35,0.52,4.26,0.12,0.16,-0.04,32.72
-8.88,-0.69,2.82,0.16,-0.01,-0.04,32.7
-8.45,0.06,2.91,-0.12,0.07,0.26,32.71
-9.06,-0.65,1.29,0.39,-0.11,-0.04,32.72
-9.53,0.28,0.85,-0.24,0.07,0.26,32.73
-8.7,1.41,3.36,-0.28,0.07,0.18,32.71
-7.11,-0.28,-0.1,0.45,0.18,0.36,32.72
-9.88,-1.13,0.94,-0.09,-0.21,-0.03,32.72
-8.95,0.66,0.08,1.12,0.15,-0.29,32.76
-9.52,-0.85,0.22,0.34,-0.3,-0.03,32.73
-9.42,1.34,1.18,0.84,0.9,0.59,32.74
-8.82,0.05,0.47,-0.42,-0.26,0.16,32.72
-8.54,0.97,0.67,0.39,0.58,0.01,32.74
-9.08,0.5,-0.34,-0.12,-0.26,-0.02,32.73
-9.17,0.7,1.88,-0.28,-0.06,0.12,32.75
-8.31,-0.05,1.22,-0.18,0.09,-0.04,32.73
-8.88,-0.18,2.29,-0.09,0.01,0.11,32.73
-9.03,0.25,2.39,-0.42,0.01,0.2,32.75
-8.76,0.03,2.71,0.4,-0.12,-0.15,32.76
-8.35,-0.05,3.07,0.05,0.08,-0.08,32.77
-8.23,-0.06,3.64,-0.01,0.03,0.04,32.75
-8.56,0.09,2.57,-0.05,0.05,0.04,32.76
-8.86,0.4,2.16,0.11,-0.06,-0.03,32.77
-8.94,0.37,2.32,-0.45,-0.02,0.21,32.77
-9.35,1.09,1.54,0.32,-0.1,-0.24,32.78
-9.27,-0.41,1.75,0.03,-0.02,0.04,32.77
-8.94,0.83,1.61,-0.25,-0.22,-0.15,32.8
-9.25,0.68,0.31,0.18,-0.02,-0.3,32.79
-9.24,0.92,1.36,-0.3,-0.08,0.06,32.8
-8.74,0.87,0.47,-0.48,0.16,0.24,32.79
-8.92,0.69,0.7,0.55,0.05,-0.21,32.79
-2.35,-0.26,-1.8,0.12,0.12,-0.37,32.8
-8.89,1.02,1.87,-0.06,-0.14,-0.09,32.82
-9.04,0.72,1.97,-0.07,-0.75,-0.04,32.81
-8.82,0.79,1.56,-0.08,-0.0,0.07,32.82
-8.99,0.65,2.13,0.01,0.03,-0.01,32.83
-8.88,0.74,2.22,0.0,-0.03,0.01,32.82
-9.1,0.75,1.73,-0.24,-0.22,0.11,32.84
-8.88,0.81,2.12,-0.06,-0.2,-0.02,32.82
-8.75,0.4,2.45,0.19,0.08,-0.22,32.83
-8.99,0.2,1.35,-0.28,-0.19,0.14,32.84
-9.17,0.52,1.41,-0.01,-0.03,-0.02,32.86
-9.13,0.38,1.87,-0.0,0.0,0.02,32.84
-9.17,0.04,1.68,0.11,-0.02,-0.08,32.86
-9.0,0.07,1.44,-0.05,-0.08,-0.06,32.84
-9.0,0.47,0.83,-0.01,-0.11,0.12,32.86
-9.14,-0.06,0.99,-0.04,-0.14,0.03,32.84
-9.22,0.03,2.41,-0.16,-0.02,0.11,32.86
-8.88,0.32,2.52,0.1,-0.04,-0.07,32.86
-8.71,0.08,3.02,0.26,0.01,0.01,32.85
-8.91,-0.16,1.86,-0.29,0.0,0.15,32.88
-8.82,-0.28,2.36,0.28,-0.18,-0.1,32.88
-9.56,-0.72,3.52,0.26,-0.2,0.33,32.89
-9.11,0.7,3.09,0.3,-0.23,-0.12,32.87
-9.05,-0.99,2.71,-0.09,-0.16,0.34,32.89
-8.44,-0.59,1.92,0.07,0.32,-0.1,32.9
-8.97,-0.03,2.27,-0.29,-0.24,-0.05,32.89
-8.47,0.51,1.36,0.0,-0.31,-0.1,32.87
-8.67,0.53,2.36,-0.14,-0.11,-0.1,32.89
-9.07,0.89,1.65,0.02,0.03,0.17,32.9
-8.7,0.53,1.79,-0.13,-0.24,0.04,32.9
-8.89,0.18,2.3,0.17,0.03,-0.0,32.9
-9.19,1.41,2.64,-0.22,0.05,0.16,32.89
-8.93,0.35,2.1,-0.09,-0.15,-0.04,32.92
-8.91,0.22,1.99,-0.03,-0.04,0.05,32.92
-8.69,-0.28,1.95,0.02,0.09,0.09,32.91
-9.77,0.23,2.3,0.07,-0.05,0.05,32.92
-9.13,0.22,1.59,-0.07,-0.07,-0.08,32.93
-9.18,-0.14,1.76,-0.05,-0.11,0.08,32.92
-8.99,-0.49,1.58,0.13,-0.18,0.06,32.93
-9.18,-0.24,2.08,-0.01,-0.31,0.09,32.93
-9.0,-0.08,1.88,0.02,-0.12,-0.0,32.93
-8.98,-0.14,2.32,0.11,-0.06,0.04,32.92
-9.38,0.19,2.01,0.31,-0.07,-0.07,32.92
-8.66,0.62,2.49,-0.05,-0.01,0.06,32.94
-8.94,-0.05,2.18,0.01,-0.46,-0.09,32.94
-9.04,0.99,1.9,-0.4,-0.33,0.69,32.94
-8.94,1.55,1.6,-0.08,-0.17,0.09,32.93
-8.99,1.59,1.06,-0.07,-0.12,0.04,32.92
-9.09,1.57,0.99,-0.05,-0.03,-0.03,32.94
-8.74,0.86,0.97,1.33,0.12,-0.56,32.95
-8.78,1.69,2.42,-0.07,-0.14,0.01,32.97
-9.0,1.01,1.81,-0.08,-0.19,0.19,32.96
-8.87,2.04,0.96,-0.76,0.3,-0.85,32.96
-9.26,-0.67,2.43,0.11,-0.03,0.21,32.98
-8.48,-0.23,2.06,-0.06,0.07,-0.13,32.98
-8.76,-0.18,0.69,-0.02,-0.19,-0.03,32.96
-8.96,-0.37,1.01,-0.09,-0.12,0.04,32.98
-9.08,-0.3,2.49,0.0,-0.1,0.13,33.0
-8.99,-0.27,1.57,-0.06,0.39,0.14,33.01
-9.1,-0.35,0.6,-0.19,-0.02,-0.01,32.99
-9.14,-0.56,1.34,0.02,-0.07,-0.01,32.99
-9.31,0.15,1.48,0.03,0.13,-0.02,33.01
-9.06,-0.23,1.19,-0.02,-0.06,-0.07,33.01
-9.15,0.18,0.66,-0.03,-0.01,-0.02,33.02
-9.37,-1.25,0.33,-0.12,0.2,0.09,33.02
-9.17,-0.2,1.13,0.01,-0.18,0.07,33.04
-9.18,-0.29,1.31,-0.02,-0.08,0.02,33.02
-9.1,-0.18,1.3,-0.06,-0.09,-0.01,33.02
-9.11,-0.52,1.54,0.06,-0.15,-0.02,33.04
-9.15,-0.35,1.05,0.05,-0.09,0.06,33.05
-9.17,-0.33,1.18,-0.02,0.01,-0.03,33.06
-9.29,0.2,1.31,-0.19,-0.19,-0.14,33.06
-9.2,-1.0,1.3,-0.02,0.1,0.03,33.05
-9.28,-0.27,0.69,0.06,-0.05,0.08,33.07
-9.42,-0.51,0.43,0.34,-0.05,0.25,33.07
-9.0,0.83,0.49,0.03,-0.04,-0.0,33.08
-9.17,0.9,0.18,0.05,0.02,0.04,33.08
-8.87,0.39,1.09,-0.18,-0.11,0.05,33.07
-9.08,0.29,1.17,-0.09,-0.03,0.02,33.09
-9.12,0.2,0.89,0.02,-0.05,0.03,33.1
-9.04,0.2,0.78,-0.12,-0.03,0.03,33.09
-8.71,-0.14,1.37,0.21,0.12,-0.14,33.11
-9.09,-1.7,0.48,-0.26,-0.5,0.39,33.13
-8.79,1.36,1.49,0.23,-0.1,-0.11,33.11
-9.14,-1.23,1.02,-0.62,-0.04,0.09,33.13
-9.0,1.2,0.44,-0.83,0.2,0.08,33.12
-8.95,-1.58,0.78,0.02,0.05,0.06,33.1
-9.23,1.37,0.71,0.16,-0.23,-0.03,33.12
-9.03,0.57,1.29,-0.0,-0.02,0.02,33.13
-9.1,0.52,1.24,0.02,-0.08,0.03,33.13
-9.12,0.46,1.37,0.15,-0.08,-0.03,33.14
-9.0,0.13,1.53,0.09,0.06,-0.07,33.13
-9.03,0.4,1.22,-0.39,0.01,0.15,33.17
-9.05,0.59,1.35,0.03,0.03,0.01,33.18
-9.06,0.06,1.07,0.67,-0.01,-0.14,33.17
-8.85,-0.8,0.55,-0.1,-0.2,0.11,33.18
-9.07,0.96,0.96,-0.62,0.03,0.22,33.17
-9.1,0.03,1.57,-0.09,-0.13,0.02,33.2
-9.0,0.04,1.61,-0.05,-0.11,-0.02,33.19
-9.1,-0.14,1.55,-0.0,-0.01,0.0,33.19
-9.1,-0.1,1.34,-0.01,-0.02,0.02,33.21
-9.08,-0.07,1.3,0.01,-0.06,0.0,33.21
-9.16,-0.05,1.35,-0.0,-0.03,0.0,33.21
-9.07,-0.0,1.3,-0.03,-0.02,0.02,33.23
-9.16,-0.04,1.51,-0.01,-0.11,-0.01,33.23
-9.03,-0.01,1.43,-0.01,-0.02,-0.01,33.22
-9.1,-0.06,1.3,-0.0,-0.05,0.02,33.2
-9.16,0.15,1.07,0.02,0.04,-0.07,33.22
-8.97,-1.86,-0.11,0.58,-0.14,0.24,33.24
-9.65,1.02,1.08,0.75,-0.2,0.19,33.24
-9.17,-1.34,0.23,0.87,0.3,-0.24,33.25
-8.99,0.25,1.18,-0.49,-0.09,0.07,33.23
-9.49,-1.34,0.48,0.02,-0.07,-0.16,33.24
-9.19,-1.21,0.9,0.01,-0.1,0.0,33.26
-9.07,-1.17,0.88,-0.37,-0.18,0.19,33.25
-8.83,0.07,2.05,-0.55,-0.12,0.26,33.26
-9.04,-0.4,1.58,-0.19,0.03,0.06,33.25
-8.98,0.32,2.34,-0.0,-0.06,0.01,33.27
-8.94,0.36,2.38,-0.03,-0.03,0.01,33.28
-8.95,0.3,2.45,0.03,-0.03,0.0,33.27
-8.92,0.41,2.53,-0.02,-0.03,0.02,33.3
-8.95,0.47,2.53,0.01,-0.07,0.03,33.28
-8.84,0.5,2.71,-0.02,-0.15,-0.0,33.27
-8.99,0.0,2.52,0.07,-0.03,-0.07,33.28
-8.93,0.28,2.48,0.03,0.0,-0.03,33.29
-8.98,0.03,1.75,-0.1,0.07,0.01,33.27
-9.05,-0.06,0.85,-0.0,-0.08,0.04,33.3
-9.25,0.0,0.93,0.02,-0.01,0.0,33.28
-9.12,-0.09,1.41,-0.0,-0.15,0.01,33.32
-9.13,0.12,1.87,-0.04,-0.07,0.01,33.3
-9.02,0.05,1.73,-0.12,-0.02,-0.03,33.29
-9.08,0.01,1.53,-0.1,-0.01,-0.01,33.3
-9.26,0.23,2.09,0.09,-0.13,-0.06,33.29
-9.08,0.02,0.91,-0.11,-0.3,0.0,33.33
-9.01,-0.04,1.5,0.06,-0.08,0.0,33.31
-9.23,-0.01,1.79,-0.01,-0.07,0.04,33.31
-9.07,-0.06,1.82,0.03,-0.01,0.03,33.32
-9.02,-0.08,1.86,-0.02,-0.09,0.01,33.33
-9.06,-0.14,1.9,-0.02,-0.07,0.02,33.33
-9.0,-0.06,1.77,-0.01,-0.04,0.04,33.32
-8.97,-0.13,1.83,-0.01,-0.07,0.01,33.34
-9.04,-0.11,1.66,-0.03,-0.01,0.01,33.36
-9.09,-0.11,1.81,0.03,0.01,0.0,33.34
-9.05,-0.17,1.82,-0.01,-0.05,0.01,33.36
-9.05,-0.21,1.82,-0.02,-0.05,0.02,33.36
-9.19,-0.28,1.87,0.04,-0.02,0.02,33.37
-9.02,-0.2,1.91,-0.01,-0.02,0.01,33.36
-9.05,-0.13,1.87,-0.01,-0.06,0.02,33.36
-9.05,-0.17,1.84,-0.03,-0.07,0.01,33.37
-9.0,-0.12,1.8,0.01,-0.06,0.01,33.38
-9.18,-0.18,1.86,0.02,0.01,0.0,33.38
-9.06,-0.18,1.91,-0.02,-0.05,0.01,33.37
-9.1,-0.15,1.85,-0.02,-0.04,0.02,33.39
-9.03,-0.13,1.75,0.01,-0.04,0.02,33.36
-9.86,-0.85,1.44,0.27,0.45,0.01,33.39
-9.14,-0.7,0.52,-0.08,-0.15,-0.03,33.38
-9.12,0.44,0.46,-0.64,-0.06,0.26,33.4
-9.13,0.01,0.95,0.22,-0.25,-0.07,33.38
-9.16,-0.55,1.34,0.02,0.01,-0.0,33.39
-8.98,-0.57,1.95,0.07,-0.07,-0.02,33.39
-8.94,-0.46,2.26,-0.01,-0.04,0.02,33.39
-8.95,-0.35,2.09,-0.02,-0.06,0.02,33.38
-8.96,-0.29,2.23,-0.03,-0.01,0.01,33.39
-9.01,-0.41,2.13,0.04,-0.05,0.01,33.4
-8.97,-0.44,2.17,0.0,-0.08,0.01,33.4
-9.05,-0.53,2.14,-0.04,0.16,0.01,33.39
-8.97,-0.48,2.04,0.01,-0.05,0.01,33.4
-8.94,-0.47,2.08,-0.05,-0.0,0.03,33.42
-8.89,-0.48,2.0,-0.0,-0.07,0.02,33.42
-9.13,-0.45,2.27,0.02,-0.05,0.01,33.42
-8.95,-0.35,2.15,-0.02,-0.03,0.01,33.42
-9.03,-0.49,2.2,-0.03,-0.08,-0.01,33.43
-9.05,-0.49,2.28,-0.01,-0.11,0.01,33.44
-8.96,-0.55,2.14,-0.03,-0.01,0.02,33.43
-9.01,-0.43,2.09,-0.02,-0.07,0.02,33.45
-9.05,-0.45,2.3,-0.02,-0.11,-0.0,33.45
-8.95,-0.58,2.16,-0.0,-0.04,0.0,33.42
-9.0,-0.58,2.08,0.0,-0.04,0.03,33.45
-8.87,-0.38,2.25,-0.01,-0.09,0.01,33.44
-9.07,-0.63,2.21,-0.03,-0.05,0.01,33.44
-8.95,-0.4,2.18,0.02,-0.03,0.04,33.44
-8.95,-0.45,2.38,0.0,-0.06,0.0,33.46
-8.99,-0.57,2.23,-0.01,-0.03,0.01,33.44
-9.0,-0.69,2.14,-0.03,-0.01,0.02,33.43
-8.94,-0.6,2.2,-0.01,-0.05,0.01,33.45
-8.9,-0.62,2.27,-0.01,-0.06,0.01,33.46
-8.97,-0.62,2.21,0.01,0.01,0.01,33.48
-8.93,-0.61,2.14,-0.02,-0.04,0.01,33.48
-8.91,-0.59,2.2,-0.01,-0.07,0.01,33.48
-8.91,-0.8,2.29,-0.05,-0.13,0.02,33.48
-8.94,0.08,0.53,-0.14,0.15,0.08,33.49
-9.05,0.57,0.62,-0.04,-0.16,-0.16,33.5
-8.98,-0.85,0.94,0.21,-0.12,-0.03,33.49
-9.06,0.22,1.41,0.03,-0.05,0.04,33.49
-9.06,0.22,1.78,-0.06,-0.05,-0.01,33.5
-9.04,0.16,1.68,-0.03,-0.06,0.02,33.5
-9.02,0.03,2.0,0.14,0.02,-0.04,33.49
-9.27,-0.14,1.66,0.01,-0.07,0.0,33.5
-8.99,-0.37,1.9,0.01,-0.05,-0.01,33.51
-9.02,-0.31,1.97,0.03,-0.0,0.03,33.52
-9.04,-0.29,1.94,0.01,-0.05,0.03,33.53
-9.01,-0.14,1.93,-0.02,-0.04,0.01,33.52
-9.05,-0.23,2.02,0.0,-0.11,0.01,33.52
-8.91,-0.13,1.96,-0.02,-0.01,0.02,33.53
-9.03,-0.25,1.93,-0.02,-0.06,0.03,33.51
-8.95,-0.15,1.99,-0.0,-0.03,0.01,33.51
-9.07,-0.1,1.73,-0.0,-0.1,0.04,33.53
-9.05,-0.09,1.91,-0.03,-0.05,0.01,33.52
-8.98,-0.11,1.88,-0.02,0.04,0.0,33.55
-9.0,0.01,1.91,-0.03,-0.04,0.03,33.55
-9.03,-0.22,1.99,-0.02,-0.06,0.01,33.54
-9.05,-0.18,1.82,-0.04,-0.08,0.02,33.53
-8.9,0.04,1.88,-0.01,-0.01,-0.01,33.52
-8.99,-0.09,1.9,-0.03,-0.03,0.02,33.54
-9.07,-0.13,1.84,-0.02,-0.04,0.01,33.53
-9.12,-0.39,1.75,-0.01,-0.1,-0.01,33.53
-9.1,-0.35,1.91,-0.0,-0.02,0.01,33.54
-9.06,-0.23,1.8,-0.01,-0.04,0.04,33.54
-9.21,-0.26,1.72,-0.05,-0.11,0.01,33.55
-9.03,-0.22,1.87,0.03,-0.02,0.0,33.55
-9.06,-0.28,1.91,-0.02,-0.01,0.01,33.56
-9.0,-0.16,2.02,0.01,-0.04,0.01,33.56
-8.98,-0.16,1.92,-0.03,-0.05,0.01,33.58
-9.0,-0.13,2.2,-0.04,-0.12,0.03,33.57
-9.05,-0.22,1.88,0.01,-0.02,0.01,33.58
-8.98,-0.26,1.92,-0.01,-0.04,0.02,33.57
-9.07,-0.21,1.93,0.01,-0.1,0.02,33.59
-9.02,-0.2,1.85,-0.0,-0.03,0.01,33.58
-9.07,-0.27,1.87,0.02,-0.05,0.01,33.59
-9.29,-0.13,1.12,0.1,0.02,-0.14,33.6
-9.12,-0.45,0.93,0.22,-0.19,0.18,33.6
-8.9,1.16,1.73,-0.18,0.03,-0.07,33.6
-8.92,-1.34,0.81,0.09,0.19,-0.11,33.58
-9.08,0.21,0.94,-0.07,-0.11,0.02,33.6
-9.21,-0.08,1.56,-0.05,-0.03,0.05,33.6
-9.05,-0.1,1.9,0.04,-0.13,0.03,33.59
-9.04,-0.04,1.75,-0.04,-0.09,0.0,33.6
-9.02,0.04,1.73,-0.08,-0.08,0.03,33.6
-8.98,-0.03,1.78,0.02,-0.01,-0.0,33.61
-9.03,0.06,1.92,-0.05,-0.06,0.03,33.61
-8.97,-0.03,2.03,-0.01,-0.08,0.01,33.59
-9.04,-0.05,1.9,-0.02,-0.08,0.02,33.62
-9.11,-0.1,1.9,-0.01,-0.03,0.02,33.62
-9.09,-0.15,1.81,-0.01,-0.05,-0.01,33.63
-9.1,-0.26,1.78,-0.02,-0.07,0.02,33.61
-9.06,-0.26,1.62,0.04,-0.03,0.03,33.64
-9.1,-0.1,1.88,-0.02,-0.01,-0.0,33.63
-9.1,-0.19,1.89,0.02,-0.03,0.07,33.64
-9.02,-0.0,1.9,-0.02,-0.08,0.02,33.64
-9.05,0.1,1.88,-0.04,-0.06,0.03,33.65
-9.03,-0.05,2.02,-0.15,-0.13,0.02,33.64
-9.16,0.04,1.56,0.06,-0.03,-0.02,33.65
-9.07,-0.28,1.61,-0.0,-0.08,0.01,33.65
-9.13,-0.14,1.72,-0.03,-0.1,0.03,33.65
-9.05,-0.18,1.9,0.01,-0.05,0.0,33.65
-9.04,-0.15,2.0,-0.01,-0.07,0.02,33.65
-9.01,-0.15,1.75,0.0,-0.03,0.02,33.65
-9.0,-0.22,1.82,-0.01,-0.04,0.01,33.67
-9.06,-0.12,1.8,-0.02,-0.07,0.01,33.64
-9.06,-0.16,1.8,-0.01,-0.08,0.04,33.65
-9.02,-0.21,1.72,-0.01,-0.04,0.0,33.69
-9.22,-0.2,1.69,-0.02,-0.07,0.0,33.67
-9.06,-0.17,1.7,-0.02,-0.05,0.02,33.67
-9.01,-0.11,1.79,-0.03,-0.02,0.02,33.67
-9.15,-0.12,1.83,-0.03,-0.08,-0.0,33.67
-9.05,-0.19,1.98,-0.01,-0.06,0.02,33.66
-8.94,-0.33,1.93,0.0,-0.06,-0.02,33.67
-9.05,-0.33,2.1,0.06,-0.06,-0.03,33.68
-9.09,-0.4,2.12,-0.03,-0.05,0.01,33.69
-9.0,-0.24,1.89,-0.05,-0.05,0.04,33.67
-9.06,-0.12,1.93,-0.02,-0.06,0.02,33.67
-9.1,-0.3,1.89,0.08,-0.08,-0.03,33.66
-9.16,-0.2,2.6,-0.15,-0.01,0.06,33.67
-8.96,0.05,1.96,-0.04,-0.01,0.07,33.67
-8.75,1.22,1.66,-0.2,0.13,0.02,33.69
-8.81,-1.08,0.89,-0.1,0.13,-0.11,33.68
-9.11,0.38,1.27,-0.22,-0.02,0.09,33.67
-9.12,-0.02,1.24,0.14,-0.05,-0.08,33.68
-9.01,0.88,1.06,-0.48,0.04,0.26,33.69
-9.06,1.2,0.71,0.0,-0.13,-0.0,33.67
-9.02,1.23,0.53,0.55,-0.09,-0.05,33.69
-9.2,0.78,1.12,-0.05,-0.11,0.01,33.69
-9.13,0.62,1.53,-0.05,-0.05,-0.05,33.71
-8.85,1.09,1.3,-0.13,0.14,0.08,33.7
-9.05,1.44,0.9,0.19,-0.01,0.01,33.7
-8.99,1.35,1.4,0.06,-0.12,-0.03,33.69
-9.04,1.37,1.17,0.01,-0.04,0.03,33.72
-9.17,0.99,1.08,-0.21,-0.09,-0.07,33.72
-9.13,0.45,1.44,0.11,0.01,-0.03,33.71
-9.1,0.5,1.47,-0.03,-0.04,0.03,33.7
-9.07,0.66,1.57,0.04,-0.04,0.02,33.72
-9.1,0.79,1.51,0.03,-0.06,-0.0,33.72
-9.12,0.66,1.34,-0.02,0.07,-0.04,33.71
-9.18,-0.48,1.51,0.09,-0.08,-0.13,33.73
-9.05,-0.16,1.64,-0.04,-0.06,0.03,33.75
-9.13,-0.28,1.46,-0.02,-0.04,0.01,33.74
-9.08,-0.06,1.78,-0.03,-0.1,-0.01,33.72
-9.21,-0.11,1.59,0.02,-0.04,0.04,33.74
-9.12,-0.07,1.63,-0.03,-0.08,0.01,33.74
-8.98,-0.55,0.72,0.26,0.27,-0.14,33.75
-8.63,-0.11,-0.4,0.58,-0.03,0.28,33.74
-9.08,0.29,0.88,0.25,-0.06,0.05,33.75
-9.0,-1.16,0.57,0.23,0.11,-0.16,33.73
-9.68,-1.06,0.22,0.08,-0.21,0.32,33.75
-8.88,-0.88,0.25,0.35,-0.12,0.01,33.73
-9.1,-1.1,0.29,-0.05,-0.05,0.01,33.75
-9.29,-1.24,0.1,0.06,-0.14,0.04,33.77
-9.25,-1.5,0.35,-0.06,-0.11,-0.05,33.77
-8.47,1.03,1.01,-0.85,-0.21,0.13,33.76
-9.33,-2.01,0.41,-0.1,-0.07,-0.17,33.76
-8.75,-0.85,0.73,1.43,-0.17,0.14,33.75
-9.12,-0.99,-1.71,0.38,0.09,-0.06,33.77
-8.26,1.13,0.11,0.39,-0.04,0.22,33.75
-8.38,-1.36,-0.28,-0.77,0.02,0.02,33.76
-9.48,-0.25,-0.92,0.75,-0.14,-0.12,33.76
-9.36,-0.18,-1.13,-0.72,-0.06,0.17,33.77
-8.98,-0.78,0.22,-0.38,-0.11,-0.13,33.76
-8.98,0.05,1.42,-0.08,-0.07,0.06,33.78
-8.98,-0.1,1.72,0.03,-0.12,-0.05,33.77
-9.11,-0.11,1.44,-0.0,0.03,0.02,33.79
-9.14,0.11,0.96,0.08,0.01,-0.02,33.79
-9.11,0.51,1.41,0.12,-0.08,-0.01,33.78
-9.33,0.15,1.77,0.09,-0.1,-0.03,33.79
-9.22,-0.09,1.04,0.12,-0.03,-0.04,33.8
-9.08,-0.12,1.59,-0.09,-0.05,0.03,33.79
-9.21,-0.19,1.31,0.05,-0.02,0.01,33.8
-9.12,-0.55,0.96,0.73,0.01,-0.16,33.81
-9.54,-0.17,-0.16,1.68,-0.16,-0.13,33.79
-9.07,-1.25,1.01,0.42,0.03,-0.13,33.82
-9.04,-1.09,0.33,-0.16,-0.01,0.1,33.81
-9.12,-1.81,0.76,-0.27,-0.06,0.18,33.79
-9.05,0.21,1.11,0.87,0.02,-0.02,33.82
-9.16,0.68,0.96,-0.69,-0.25,0.13,33.82
-9.45,0.14,0.32,-0.54,-0.02,0.1,33.82
-9.04,0.27,1.18,0.13,-0.07,-0.02,33.83
-9.35,0.3,0.83,0.12,0.06,-0.01,33.83
-9.43,0.83,0.74,-0.33,-0.09,0.09,33.83
-9.3,-0.43,1.04,-0.32,0.05,0.07,33.84
-9.0,-0.64,1.09,-0.71,0.19,0.1,33.83
-9.34,-0.16,0.89,-0.3,0.1,0.07,33.83
-9.1,-0.31,1.15,0.26,-0.13,-0.0,33.82
-9.56,-0.86,1.1,-0.54,-0.11,0.05,33.82
-8.86,-1.08,0.78,0.85,-0.15,-0.28,33.82
-8.55,-1.7,1.29,0.17,-0.01,0.09,33.83
-9.14,-1.1,1.31,-0.2,-0.05,0.06,33.85
-8.96,-1.04,1.39,0.01,-0.16,0.01,33.84
-8.98,-1.1,1.45,-0.07,0.05,-0.02,33.85
-9.06,-1.28,1.67,-0.07,-0.02,0.01,33.85
-8.91,-1.01,1.73,0.01,-0.03,0.02,33.86
-8.84,-2.06,2.08,-0.51,0.17,0.12,33.84
-8.64,-1.11,1.51,-0.09,-0.05,-0.07,33.85
-8.94,-1.25,1.77,0.0,-0.21,0.06,33.85
-9.35,-0.65,1.59,-0.11,0.09,0.0,33.84
-9.44,-0.53,1.98,0.11,-0.19,0.02,33.87
-8.87,-1.51,1.73,0.14,-0.04,-0.05,33.86
-8.83,-0.06,1.5,-0.09,-0.04,-0.05,33.87
-9.52,0.6,0.73,-0.09,0.11,0.03,33.88
-8.95,-1.72,0.81,-1.04,0.13,-0.06,33.88
-8.49,1.67,0.32,1.08,-0.0,-0.03,33.87
-9.05,-0.15,-0.29,-1.44,-0.12,-0.1,33.89
-8.54,0.39,-0.61,-0.43,-0.02,-0.02,33.89
-8.65,-0.72,0.96,0.01,0.04,0.08,33.86
-8.72,0.64,-0.02,0.99,0.27,-0.07,33.88
-9.25,-1.4,-0.03,-0.04,-0.12,-0.3,33.89
-9.22,1.08,0.53,0.09,-0.02,-0.16,33.88
-8.96,-0.24,2.22,-0.21,-0.02,0.12,33.89
-8.98,0.17,2.05,0.1,-0.07,-0.02,33.87
-9.04,-0.02,2.33,-0.01,-0.1,-0.01,33.88
-8.94,-0.02,2.31,-0.0,-0.06,-0.01,33.89
-9.34,-0.72,1.24,0.09,0.05,-0.06,33.89
-8.99,-2.03,1.38,0.62,-0.22,-0.06,33.91
-8.7,0.49,1.12,1.11,0.09,-0.29,33.89
-9.58,-1.61,-0.01,0.11,-0.08,-0.17,33.92
-8.86,-1.0,1.31,-0.34,-0.17,0.16,33.9
-8.94,-0.23,1.41,-0.17,-0.18,-0.07,33.92
-9.05,0.03,2.09,-0.06,-0.09,0.02,33.92
-8.74,-0.18,3.26,-0.29,-0.2,-0.12,33.91
-9.06,0.51,2.83,0.1,-0.11,0.01,33.93
-8.84,0.51,3.3,-0.03,0.03,-0.04,33.91
-8.76,0.15,2.72,-0.08,-0.05,0.03,33.92
-9.25,0.14,1.97,-0.06,0.17,-0.06,33.91
-9.02,-0.21,1.8,0.06,-0.05,0.02,33.93
-9.1,-0.26,1.61,-0.04,-0.05,0.02,33.94
-9.11,0.01,-0.02,0.05,-0.03,0.07,33.94
-9.26,-0.39,0.91,-0.11,-0.19,0.05,33.93
-9.16,-0.52,1.08,0.13,-0.09,-0.02,33.93
-9.14,-0.52,1.07,-0.12,-0.09,0.1,33.93
-9.19,-0.64,1.13,0.83,0.02,-0.06,33.94
-9.03,-1.07,0.84,0.29,-0.08,-0.06,33.92
-9.22,-1.47,1.13,-0.1,-0.18,0.02,33.94
-8.97,-1.08,1.13,0.36,0.14,0.03,33.93
-8.98,-1.66,1.11,0.9,-0.01,-0.31,33.96
-8.65,-1.09,1.18,-0.39,0.21,0.22,33.95
-9.28,-0.93,0.79,0.69,-0.42,-0.14,33.96
-9.22,-1.45,1.06,-0.02,0.05,0.05,33.95
-8.43,0.74,0.66,0.7,0.13,0.06,33.95
-8.93,-1.83,0.81,-0.84,-0.04,0.11,33.95
-9.24,0.58,0.96,-1.3,-0.04,0.24,33.96
-9.0,-0.47,1.47,-0.47,-0.12,-0.01,33.98
-9.12,-0.28,1.1,-0.41,-0.16,0.07,33.97
-8.96,-0.64,1.69,0.09,-0.02,0.02,33.97
-9.01,0.17,1.58,-0.09,0.1,0.01,33.97
-9.22,-0.2,1.03,-0.15,0.09,0.12,33.97
-9.08,-0.01,0.98,-0.07,0.01,0.05,33.97
-9.35,-1.36,1.51,-0.06,-0.28,-0.09,33.98
-9.1,-1.23,1.02,-0.1,-0.01,-0.11,33.99
-9.07,-1.95,1.26,-0.05,-0.06,-0.07,33.97
-9.22,-0.28,1.02,0.3,0.11,-0.0,33.99
-8.59,-1.91,1.19,0.48,0.21,-0.1,33.98
-8.95,-0.48,1.93,-0.29,-0.0,0.16,34.0
-9.13,-0.16,1.58,-0.39,-0.09,-0.05,34.02
-9.44,-2.15,1.49,-0.26,-0.32,0.1,34.02
-9.1,-0.57,1.24,0.05,-0.12,-0.03,33.99
-9.05,-0.91,1.69,-0.04,-0.19,-0.01,34.01
-8.94,-0.52,2.13,0.03,0.0,0.02,34.01
-8.99,-0.51,2.18,0.01,-0.04,0.01,33.99
-8.94,-0.59,2.09,0.01,-0.01,0.01,34.0
-9.23,-0.1,1.22,0.98,-0.0,0.08,34.0
-9.02,-1.22,0.95,0.9,0.11,-0.2,33.99
-8.77,-0.99,1.0,-0.02,0.04,0.08,34.01
-9.09,-1.36,1.5,0.52,-0.01,-0.09,33.99
-9.08,0.33,1.51,0.22,-0.04,-0.12,34.0
-9.47,-1.0,1.39,0.07,-0.04,-0.21,34.02
-9.19,-0.23,2.11,-0.0,-0.25,0.09,34.03
-8.45,-3.17,1.87,-0.56,0.35,-0.01,34.02
-8.91,0.59,1.44,-0.24,0.13,0.24,34.01
-9.39,-0.92,1.16,-1.46,-0.09,0.09,34.04
-9.01,-0.07,1.24,-0.58,-0.15,0.12,34.03
-9.08,-0.09,1.66,-0.01,0.01,0.03,34.03
-9.09,-0.53,0.86,0.06,-0.13,0.02,34.02
-9.02,0.2,1.32,-0.52,-0.09,0.05,34.03
-8.99,-0.82,1.71,0.14,0.01,-0.04,34.04
-9.1,-0.64,1.51,-0.07,0.03,0.12,34.04
-8.88,-0.4,1.22,-0.37,-0.19,0.17,34.05
-8.82,-0.0,1.5,0.17,-0.06,0.04,34.07
-8.79,0.65,1.42,-0.07,-0.0,-0.05,34.05
-8.98,-0.29,1.88,0.23,-0.12,-0.08,34.05
-8.93,-1.01,1.91,0.1,-0.18,-0.06,34.03
-9.06,-0.58,1.41,0.01,-0.08,0.0,34.03
-9.15,-1.62,1.76,-0.17,-0.04,-0.0,34.04
-9.23,-0.52,1.05,0.74,0.14,-0.04,34.05
-8.64,-2.47,0.52,0.36,0.08,-0.07,34.07
-9.16,-0.39,0.52,0.37,-0.02,0.2,34.06
-8.48,-1.78,1.2,0.41,0.07,-0.13,34.07
-9.03,-0.43,2.03,-0.3,-0.3,0.14,34.07
-9.01,-0.42,2.21,0.08,-0.02,-0.05,34.09
-9.06,-0.65,2.08,0.25,-0.13,-0.09,34.07
-8.77,-1.03,2.08,-0.03,-0.1,0.03,34.09
-9.07,-1.0,1.84,0.13,-0.03,-0.02,34.08
-8.87,-0.85,1.82,-0.04,-0.06,0.01,34.09
-9.2,-0.25,1.6,0.06,-0.03,-0.04,34.08
-9.46,-0.65,1.54,-0.12,0.08,0.08,34.07
-9.2,-0.64,1.87,0.17,-0.11,-0.1,34.09
-9.14,-1.4,2.28,-0.11,0.04,0.11,34.09
-9.1,-0.8,2.13,0.07,-0.03,-0.0,34.07
-9.18,-0.77,1.66,0.01,-0.02,0.04,34.11
-9.0,-0.78,1.62,-0.01,-0.05,0.02,34.11
-9.03,-0.68,1.62,-0.03,-0.04,0.03,34.08
-9.23,-0.61,1.19,-0.04,-0.11,-0.0,34.09
-9.11,-0.75,1.32,0.01,-0.05,-0.0,34.11
-9.16,-0.4,1.51,-0.62,-0.18,0.15,34.1
-9.03,-0.31,1.59,0.0,-0.02,-0.01,34.1
-9.07,-1.02,0.77,0.22,0.12,-0.03,34.1
-9.54,-0.72,1.41,-0.1,-0.02,0.08,34.11
-9.08,-0.84,1.55,0.03,-0.06,-0.0,34.09
-9.02,-0.71,1.55,0.03,0.05,-0.01,34.11
-9.15,-0.98,1.98,0.01,-0.37,0.0,34.09
-9.1,-0.82,1.42,-0.0,-0.07,0.02,34.09
-8.98,-0.78,1.37,0.01,-0.04,0.03,34.12
-9.09,-0.86,1.43,-0.0,-0.03,0.01,34.14
-9.28,-0.87,1.38,0.03,-0.04,0.01,34.12
-9.06,-0.84,1.41,-0.01,-0.04,0.01,34.12
-9.05,-0.82,1.54,-0.04,0.02,0.0,34.13
-9.21,-1.01,1.22,0.01,-0.15,-0.01,34.11
-9.06,-0.96,1.42,0.01,-0.04,0.02,34.12
-9.11,-0.88,1.37,-0.04,0.04,0.02,34.13
-9.08,-0.88,1.34,-0.02,-0.12,0.02,34.14
-9.07,-0.85,1.41,-0.01,-0.04,0.02,34.12
-9.08,-0.82,1.52,-0.01,-0.03,0.02,34.12
-9.07,-0.84,1.37,-0.01,-0.06,0.02,34.14
-9.21,-0.87,1.47,0.02,-0.06,0.02,34.12
-9.09,-0.79,1.45,-0.0,-0.05,0.03,34.13
-8.97,-0.39,1.94,-0.16,-0.15,0.09,34.13
-9.32,-0.35,1.45,-0.12,0.1,0.02,34.14
-9.19,-0.51,1.9,0.05,-0.71,0.01,34.14
-9.12,-0.68,0.55,-0.11,-0.27,0.1,34.15
-8.88,-0.62,2.67,0.02,-0.32,0.02,34.15
-9.12,0.3,0.16,-0.02,0.27,-0.06,34.15
-9.36,-0.37,1.03,0.07,0.13,0.11,34.14
-8.97,0.07,-0.08,0.18,-1.41,0.01,34.16
-9.16,0.13,0.48,-0.21,0.01,0.02,34.15
-9.05,-0.37,0.19,-0.0,0.03,0.17,34.16
-9.25,-0.07,2.02,-0.13,-0.55,-0.25,34.17
-9.36,-1.54,0.97,0.06,-0.02,-0.1,34.15
-8.8,-1.73,1.01,-0.15,0.07,0.1,34.15
-9.16,-1.57,0.48,0.08,0.03,-0.05,34.15
-9.39,-0.56,0.89,0.06,0.08,-0.08,34.17
-9.55,-0.94,0.74,-0.03,-0.04,0.11,34.16
-9.06,-0.86,0.25,-0.26,0.13,0.17,34.14
-9.4,-0.86,-0.19,-0.1,0.01,-0.02,34.14
-9.14,-0.7,1.23,0.04,-0.05,0.02,34.17
-9.11,-1.02,1.09,-0.03,0.05,0.05,34.17
-9.06,-0.89,1.21,0.07,-0.05,0.01,34.17
-9.0,-0.54,1.4,-0.06,0.06,0.04,34.17
-9.03,-0.76,0.78,-0.01,-0.05,-0.01,34.17
-8.92,-1.11,2.0,0.18,-0.38,-0.05,34.18
-9.15,-0.77,1.24,-0.03,0.02,-0.0,34.17
-9.14,-0.82,1.13,0.0,-0.09,-0.01,34.18
-9.1,-0.8,1.21,0.01,-0.06,0.02,34.19
-9.32,-0.99,0.95,-0.14,-0.12,-0.05,34.19
-9.09,-0.68,1.64,-0.16,-0.03,0.07,34.19
-9.15,-1.12,1.43,0.08,0.01,-0.06,34.17
-9.02,-1.04,0.03,0.16,0.08,-0.01,34.18
-9.27,-1.17,0.94,-0.02,-0.2,0.06,34.19
-9.25,-1.23,0.89,0.01,-0.03,0.02,34.18
-8.99,-0.8,1.3,-0.15,-0.14,0.08,34.19
-9.05,-0.77,1.36,-0.19,-0.11,0.05,34.2
-9.08,-0.69,1.43,-0.01,-0.05,-0.05,34.21
-8.96,-1.13,1.57,-0.01,-0.14,-0.0,34.2
-9.02,-1.17,1.61,-0.02,-0.04,0.0,34.22
-8.96,-1.12,1.57,-0.01,0.04,0.02,34.2
-9.09,-1.34,1.2,-0.02,-0.07,0.03,34.2
-9.16,-1.02,1.48,0.15,-0.09,-0.05,34.22
-8.97,-1.19,0.82,-0.15,-0.02,0.07,34.21
-8.86,-0.94,1.03,-0.13,-0.11,-0.04,34.21
-8.9,-1.13,0.96,0.16,-0.06,-0.0,34.22
-8.99,-1.02,1.55,0.0,0.01,-0.06,34.21
-9.0,-1.11,1.52,0.01,-0.02,0.02,34.24
-9.06,-1.0,1.57,-0.01,-0.07,0.02,34.22
-9.08,-1.12,1.58,0.0,-0.04,-0.0,34.22
-9.19,-0.81,1.08,-0.04,-0.1,0.01,34.24
-9.0,-0.56,1.64,0.01,0.05,0.01,34.23
-9.2,-0.85,1.97,0.23,-0.23,-0.1,34.23
-9.62,-1.07,0.75,-0.3,-0.18,-0.0,34.24
-8.86,-0.61,1.08,-0.06,-0.03,0.04,34.25
-9.26,-2.09,1.81,0.37,-0.19,-0.02,34.24
-8.89,-0.23,0.9,-0.05,0.07,0.02,34.23
-9.05,0.36,0.79,-0.2,-0.11,-0.07,34.26
-9.08,0.14,1.06,0.0,0.12,-0.08,34.25
-9.27,-0.58,0.37,0.52,-0.03,-0.23,34.25
-9.45,-1.88,0.43,-0.21,-0.16,0.18,34.25
-9.58,-0.17,0.01,-0.25,-0.18,0.04,34.26
-9.15,-0.38,0.83,-0.22,-0.13,0.06,34.26
-9.16,-0.89,0.36,-0.11,-0.05,0.07,34.27
-9.05,-0.11,0.88,-0.11,0.12,0.09,34.27
-9.28,-1.23,-0.38,0.5,-0.14,-0.15,34.26
-9.06,-0.8,0.26,-0.33,-0.22,0.08,34.27
-8.97,-0.96,0.61,0.12,-0.02,0.0,34.27
-9.21,-0.86,1.2,-0.16,-0.17,0.05,34.28
-9.96,-0.98,0.65,-0.03,-0.01,-0.0,34.3
-9.15,-0.77,1.5,-0.04,0.02,0.06,34.28
-9.11,-1.12,0.76,0.01,-0.0,-0.0,34.29
-9.07,-0.72,0.68,0.06,-0.13,0.01,34.29
-8.95,-1.28,0.75,0.25,-0.05,-0.11,34.27
-9.02,-1.24,1.02,-0.05,-0.13,0.02,34.32
-9.07,-1.14,1.12,-0.01,-0.05,0.01,34.29
-9.25,-1.41,1.13,-0.41,-0.23,-0.02,34.32
-9.08,-1.25,1.53,0.02,-0.06,-0.01,34.3
-8.94,-1.65,1.38,0.12,0.0,-0.06,34.31
-9.09,-0.91,0.77,0.15,-0.0,0.0,34.32
-8.93,-0.96,1.54,0.13,-0.08,-0.04,34.32
-8.85,-1.13,0.22,0.17,-0.21,-0.15,34.3
-9.09,-1.31,1.38,-0.03,-0.07,0.12,34.32
-9.06,-1.07,0.73,-0.13,0.03,-0.01,34.32
-9.06,-1.12,1.08,-0.17,-0.02,-0.0,34.32
-9.26,-0.7,1.12,-0.67,-0.14,0.24,34.35
-9.02,-1.13,1.34,0.07,-0.02,-0.06,34.33
-9.03,-1.56,0.59,0.71,0.2,-0.13,34.34
-8.81,-1.58,0.39,-0.41,-0.35,0.09,34.33
-8.92,-1.93,0.63,0.38,-0.25,0.1,34.35
-9.03,-0.54,1.21,0.01,-0.04,0.0,34.34
-8.65,-2.38,0.43,-0.35,0.11,-0.05,34.34
-9.52,-0.62,1.0,-0.37,-0.17,0.07,34.35
-9.01,-1.44,1.53,0.25,0.06,-0.06,34.35
-9.55,-1.84,0.65,-0.14,-0.33,0.02,34.35
-9.07,-1.42,1.25,-0.03,-0.12,0.01,34.39
-9.12,-1.22,1.19,0.01,0.01,-0.01,34.36
-9.41,-1.41,0.43,0.16,0.01,-0.04,34.35
-9.08,-0.78,0.76,-0.07,0.17,0.07,34.36
-9.09,-0.91,0.8,-0.04,-0.02,0.01,34.37
-9.29,-0.78,-0.14,0.75,-0.03,-0.13,34.35
-8.96,-1.85,0.8,-0.15,-0.03,0.03,34.37
-8.88,-1.59,0.81,0.18,0.04,0.14,34.37
-8.8,-2.23,0.93,0.21,0.1,0.13,34.37
-9.07,-2.05,0.8,-0.05,-0.07,-0.02,34.4
-9.01,-1.67,0.78,-0.31,-0.13,0.02,34.4
-8.56,-1.1,0.65,-0.91,-0.02,0.17,34.37
-9.21,-0.73,0.28,0.77,-0.11,-0.02,34.4
-9.33,-0.34,0.33,0.16,0.06,-0.03,34.4
-9.05,-2.42,0.23,0.82,0.07,0.1,34.38
-8.88,-0.13,0.71,0.44,-0.05,-0.09,34.38
-8.78,-1.88,-0.47,-1.58,-0.61,0.23,34.39
-9.6,-0.29,0.62,-0.27,-0.11,-0.03,34.39
-8.87,-1.92,1.25,-0.68,0.06,0.18,34.39
-9.44,0.81,0.83,-0.01,-0.18,0.11,34.4
-9.21,0.12,1.07,-0.01,-0.03,-0.02,34.4
-9.17,0.01,0.93,-0.01,-0.1,0.01,34.39
-9.18,0.04,0.96,0.44,-0.12,-0.24,34.37
-9.27,-0.29,0.67,-0.12,0.14,-0.01,34.39
-8.6,-2.66,-0.69,0.34,0.47,-0.17,34.4
-9.24,0.45,-0.2,-0.19,0.05,0.22,34.4
-8.98,-1.58,0.14,-0.24,0.04,-0.05,34.39
-9.74,-1.75,1.28,0.08,0.03,0.13,34.4
-8.95,-1.75,0.86,0.1,0.44,0.03,34.42
-9.12,-1.03,0.98,0.15,-0.02,0.06,34.43
-8.87,-1.18,1.25,0.13,-0.02,-0.03,34.39
-8.84,-0.97,1.7,0.38,-0.01,-0.11,34.41
-9.21,-1.69,1.97,0.3,-0.13,0.09,34.44
-9.17,-1.32,1.37,-0.19,0.12,0.02,34.43
-9.01,-2.09,1.02,0.13,0.04,-0.06,34.39
-8.85,-2.86,1.01,0.26,-0.0,-0.07,34.41
-8.49,-0.95,0.79,-0.44,-0.02,0.05,34.43
-9.6,-1.85,1.33,0.05,0.09,0.12,34.42
-10.81,-1.03,-0.21,-0.19,-0.71,-0.02,34.43
-9.07,-1.33,1.01,0.04,-0.03,-0.0,34.42
-9.04,-0.77,1.73,-0.08,-0.07,0.01,34.44
-9.2,-0.92,1.98,0.03,-0.07,-0.03,34.45
-9.13,-1.1,1.79,-0.02,-0.14,0.02,34.43
-8.94,-0.94,1.99,-0.01,0.0,0.02,34.44
-9.05,-1.18,1.89,-0.3,0.01,0.09,34.45
-9.35,-1.21,0.66,0.03,0.0,-0.04,34.42
-8.96,-0.87,1.34,-0.1,-0.05,0.05,34.46
-9.02,-0.72,1.66,-0.07,-0.04,0.02,34.44
-9.09,-0.81,1.64,-0.01,-0.06,0.01,34.43
-9.23,-0.89,1.57,0.02,-0.05,0.02,34.46
-9.12,-0.89,1.61,-0.04,-0.05,0.01,34.44
-9.09,-0.42,1.34,-0.08,-0.01,0.07,34.45
-8.95,-0.71,1.97,0.03,-0.05,-0.02,34.45
-8.99,-0.83,1.82,-0.01,0.01,0.01,34.46
-9.0,-1.07,1.67,-0.02,-0.03,0.0,34.47
-8.97,-0.96,1.81,-0.01,-0.09,0.02,34.46
-8.99,-0.97,1.93,-0.0,-0.02,0.02,34.47
-8.85,-1.04,1.65,0.05,0.16,0.02,34.47
-9.14,-1.18,0.85,0.04,-0.07,-0.04,34.47
-8.88,-1.34,1.81,-0.01,-0.05,0.03,34.47
-9.0,-1.25,1.69,-0.02,0.0,0.02,34.47
-9.03,-1.3,1.61,-0.02,-0.04,0.02,34.45
-9.0,-1.27,1.68,0.0,-0.04,0.02,34.48
-8.89,-1.28,1.55,0.0,-0.06,0.02,34.47
-9.0,-1.3,1.56,-0.03,-0.01,0.01,34.47
-8.95,-0.94,1.59,-0.23,-0.12,0.13,34.47
-8.99,-0.91,1.73,0.01,-0.08,-0.01,34.47
-9.02,-0.9,2.01,0.14,-0.02,-0.02,34.48
-8.91,-0.89,1.19,0.33,0.12,0.0,34.48
-8.83,-0.7,2.05,0.02,0.1,-0.03,34.49
-9.08,-0.34,1.65,-0.04,-0.01,0.01,34.48
-9.01,-0.83,1.36,-0.0,-0.1,-0.03,34.47
-9.07,-0.84,1.5,0.02,-0.01,0.02,34.47
-9.07,-0.75,1.5,-0.08,-0.12,0.02,34.48
-9.01,-0.83,1.68,-0.05,-0.07,0.04,34.5
-9.1,-0.77,1.81,0.0,-0.0,0.01,34.47
-8.94,-0.76,1.93,0.02,0.02,0.0,34.48
-9.04,-0.92,1.85,-0.01,-0.05,0.02,34.49
-9.01,-1.04,1.94,-0.0,-0.04,0.01,34.51
-8.89,-1.05,1.85,0.07,-0.02,-0.02,34.5
-9.11,-0.95,0.98,-0.05,0.03,-0.04,34.5
-9.14,-0.89,1.15,-0.01,-0.01,0.02,34.47
-9.08,-0.91,1.16,-0.02,-0.06,0.01,34.49
-9.36,-1.26,0.86,0.06,-0.18,0.05,34.49
-9.07,-1.14,0.67,0.04,0.04,0.04,34.5
-9.3,-1.24,0.68,-0.26,-0.09,0.03,34.51
-9.09,-0.97,1.12,-0.1,-0.06,0.01,34.5
-8.76,-0.78,0.83,-0.12,-0.07,0.01,34.48
-9.07,-0.29,1.17,0.02,0.0,0.01,34.51
-9.26,-0.34,1.14,-0.14,0.25,0.02,34.5
-9.07,-0.91,0.43,0.0,-0.11,-0.03,34.52
-9.12,-1.34,1.18,-0.04,-0.21,-0.01,34.49
-9.32,-1.35,1.02,-0.17,-0.08,0.06,34.49
-9.16,-0.87,1.63,-0.07,0.01,0.22,34.51
-8.9,-1.45,1.32,0.03,-0.03,0.01,34.49
-9.14,-0.85,1.64,-0.03,-0.01,-0.03,34.51
-9.07,-0.86,1.49,0.02,0.0,0.0,34.49
-9.12,-1.03,1.49,-0.04,-0.07,0.01,34.51
-9.16,-1.3,1.14,0.72,0.07,-0.05,34.49
-9.32,-1.47,1.4,-0.49,0.05,0.18,34.52
-9.37,-0.44,1.25,-0.33,-0.24,0.19,34.52
-9.25,-0.76,0.92,0.24,-0.12,-0.07,34.53
-8.94,-1.34,1.69,0.07,-0.03,-0.09,34.51
-8.78,-1.98,0.94,0.65,0.01,0.02,34.51
-9.19,0.05,0.7,0.62,0.17,-0.02,34.51
-8.8,-1.8,0.74,-1.06,-0.15,0.2,34.5
-9.13,0.14,0.98,0.29,-0.2,-0.21,34.5
-9.19,-0.32,0.15,-0.6,-0.1,0.45,34.54
-9.12,1.65,-1.16,-0.03,0.04,-0.02,34.51
-8.81,1.73,-1.45,0.03,-0.06,0.0,34.53
-8.96,1.78,-1.03,0.09,-0.02,-0.2,34.52
-8.97,-1.41,1.49,-0.65,-0.04,0.04,34.52
-9.09,-0.85,1.32,0.05,0.03,0.0,34.52
-8.96,-1.72,0.87,1.08,0.19,-0.19,34.53
-9.47,-0.91,0.57,-1.03,-0.18,0.15,34.52
-9.51,-2.46,1.21,0.11,-0.18,-0.16,34.52
-8.5,-1.32,1.56,0.48,-0.01,-0.06,34.52
-9.18,-0.76,0.84,1.01,-0.06,-0.25,34.51
-8.55,-2.53,1.78,-0.82,-0.22,0.19,34.52
-9.01,0.95,1.01,-1.4,0.21,0.52,34.53
-9.54,-1.01,0.96,-0.72,-0.3,0.04,34.52
-8.74,-3.14,0.24,0.01,0.03,-0.0,34.56
-8.87,-0.85,1.22,1.17,0.19,-0.04,34.54
-9.01,-1.79,0.92,0.89,0.03,-0.17,34.52
-8.83,-2.33,0.88,-0.75,-0.08,0.23,34.52
-9.11,0.35,0.52,-0.9,0.03,0.07,34.53
-9.04,-1.74,0.96,-0.63,0.13,0.01,34.52
-9.11,0.56,1.77,-0.32,-0.18,-0.05,34.52
-9.34,-1.73,1.19,-0.6,-0.05,0.2,34.53
-9.28,0.34,0.96,0.76,-0.16,-0.18,34.54
-9.15,-1.36,1.47,-0.26,-0.14,0.09,34.54
-9.11,-0.54,0.96,0.14,-0.1,0.04,34.54
-9.11,-0.49,0.96,-0.01,-0.06,0.01,34.53
-9.16,-0.46,0.98,-0.06,-0.09,0.03,34.53
-9.13,-0.43,1.11,0.01,-0.02,0.02,34.53
-9.12,-0.46,1.05,-0.02,-0.0,0.01,34.55
-9.09,-0.35,1.28,0.14,-0.08,0.03,34.56
-9.21,-0.32,0.75,0.83,-0.16,-0.27,34.54
-8.46,-2.79,0.92,1.22,0.23,0.01,34.52
-8.73,-0.46,1.27,0.97,0.25,0.02,34.54
-8.42,-1.66,1.0,-0.4,0.06,0.01,34.53
-8.74,0.97,1.1,-0.02,0.04,0.06,34.54
-9.01,0.32,1.02,0.12,-0.04,-0.01,34.55
-9.31,0.63,0.54,-0.39,0.19,-0.0,34.54
-9.0,0.48,0.34,0.07,0.02,0.01,34.52
-9.11,0.65,0.63,0.04,-0.09,0.03,34.53
-9.05,1.33,1.24,-0.0,-0.02,-0.09,34.53
-9.04,0.97,1.15,-0.06,-0.06,0.02,34.53
-9.03,1.29,1.33,-0.01,-0.02,0.04,34.53
-9.01,1.07,1.41,-0.0,-0.08,0.01,34.52
-9.06,0.89,1.51,0.01,-0.04,0.0,34.53
-9.18,1.02,1.47,0.01,-0.04,0.03,34.51
-9.22,1.12,1.35,-0.04,-0.04,0.01,34.53
-9.1,0.98,1.43,0.01,-0.01,0.0,34.51
-9.04,0.82,1.64,-0.03,-0.08,0.0,34.52
-9.01,0.77,1.5,-0.01,-0.06,0.02,34.52
-9.01,0.8,1.73,0.0,-0.01,0.0,34.52
-9.06,0.78,1.53,-0.0,-0.05,0.01,34.52
-9.05,0.77,1.61,-0.02,-0.04,0.01,34.54
-9.06,0.73,1.58,-0.0,-0.04,0.02,34.53
-9.03,0.71,1.63,-0.0,-0.06,0.01,34.54
-8.96,0.73,1.59,0.01,-0.06,0.02,34.51
-9.09,0.79,1.62,-0.05,-0.04,0.02,34.52
-9.05,0.89,1.53,-0.04,-0.03,0.02,34.52
-8.99,0.47,1.53,0.07,-0.07,-0.01,34.52
-9.04,0.4,1.67,0.02,0.01,0.0,34.51
-9.04,0.41,1.55,-0.03,-0.06,0.01,34.52
-9.08,0.43,1.64,0.0,-0.05,0.02,34.52
-9.01,0.39,1.65,0.01,-0.04,0.02,34.52
-9.04,0.4,1.64,-0.02,-0.09,0.01,34.5
-9.16,0.43,1.73,0.01,0.0,0.01,34.52
-9.06,0.44,1.71,0.0,-0.03,0.02,34.52
-9.03,0.43,1.66,-0.06,-0.09,0.01,34.51
-9.05,0.56,1.88,-0.04,-0.06,0.01,34.5
-9.09,0.36,1.66,0.0,0.0,0.0,34.52
-9.08,0.35,1.67,0.0,-0.07,0.02,34.49
-8.95,0.5,1.74,-0.0,-0.06,0.0,34.5
-9.11,0.48,1.88,-0.01,-0.05,0.01,34.5
-9.05,0.39,1.67,-0.01,-0.03,0.01,34.5
-9.07,0.41,1.71,-0.01,-0.04,0.01,34.5
-9.07,0.38,1.66,-0.0,-0.03,0.02,34.47
-9.02,0.57,1.7,-0.0,-0.07,0.02,34.5
-9.22,0.4,1.75,-0.02,-0.07,0.01,34.5
-9.14,0.36,1.52,-0.01,-0.06,0.02,34.49
-9.14,0.51,1.62,-0.01,-0.06,-0.0,34.49
-9.02,0.35,1.6,-0.03,-0.02,0.02,34.5
-9.07,0.38,1.7,-0.02,-0.04,0.01,34.51
-9.24,0.6,1.19,-0.16,-0.03,0.08,34.49
-9.07,0.62,1.27,-0.06,-0.04,0.03,34.47
-9.1,0.87,1.36,0.01,-0.05,0.05,34.47
-9.16,0.04,1.19,-0.03,0.02,0.03,34.49
-8.7,-0.71,1.06,-1.09,-0.25,-0.02,34.5
-9.07,-0.98,1.86,-1.15,-0.18,0.31,34.48
-10.56,-0.01,0.41,-0.29,-0.18,-0.19,34.52
-9.48,-0.99,0.46,0.8,0.3,-0.1,34.49
-8.37,-2.11,1.47,0.44,-0.02,-0.07,34.48
-8.49,-2.46,1.29,0.0,-0.17,-0.09,34.49
-9.47,-3.14,1.48,0.09,0.07,0.09,34.48
-8.77,-2.31,1.54,0.07,0.02,0.2,34.49
-8.84,-0.76,1.49,0.42,0.19,-0.06,34.5
-8.7,-1.99,0.92,-0.7,0.18,0.17,34.49
-9.64,0.44,0.88,0.25,-0.01,-0.11,34.48
-9.01,-1.46,2.04,0.03,-0.07,0.09,34.49
-8.95,-1.19,2.08,-0.03,-0.09,0.02,34.48
-8.89,-1.33,2.26,0.2,-0.03,-0.04,34.49
-8.86,-1.64,2.33,-0.04,-0.04,0.0,34.49
-8.87,-1.72,2.21,-0.05,-0.09,0.03,34.51
-9.0,-1.7,2.16,-0.06,0.03,-0.01,34.48
-8.86,-1.42,1.72,0.13,0.2,0.08,34.49
-9.0,-1.01,1.68,0.09,-0.03,-0.06,34.49
-8.92,-1.32,1.5,-0.0,-0.11,0.01,34.49
-8.79,-1.11,1.98,-0.04,0.0,-0.03,34.5
-8.96,-1.26,1.96,-0.0,-0.06,0.01,34.47
-8.92,-1.35,1.9,-0.01,-0.08,0.03,34.47
-8.97,-1.34,2.07,-0.02,-0.03,0.0,34.48
-8.84,-1.51,2.0,-0.03,-0.04,0.02,34.47
-8.93,-1.43,1.8,-0.03,-0.05,0.01,34.48
-8.97,-1.5,1.93,0.0,-0.04,0.02,34.48
-8.91,-1.47,2.06,-0.01,-0.04,0.02,34.49
-8.91,-1.39,1.88,-0.02,-0.1,0.01,34.48
-8.94,-1.42,1.95,-0.01,-0.07,0.01,34.48
-8.86,-1.43,2.07,-0.04,-0.03,0.0,34.49
-8.97,-1.55,1.86,-0.0,-0.05,0.0,34.47
-8.98,-1.28,1.75,0.23,0.05,-0.04,34.5
-8.98,-1.61,1.7,0.02,-0.05,0.04,34.49
-8.88,-1.73,1.53,-0.16,-0.02,0.09,34.51
-8.98,-1.75,1.78,-0.03,-0.06,-0.0,34.48
-8.99,-1.58,1.77,-0.08,-0.12,0.03,34.49
-8.96,-1.46,1.8,-0.08,-0.06,0.03,34.5
-8.96,-1.79,1.91,-0.02,-0.14,-0.0,34.49
-8.88,-1.39,1.91,-0.03,-0.0,0.04,34.52
-8.96,-1.59,1.85,-0.01,-0.1,0.0,34.49
-9.15,-1.37,1.39,-0.18,0.05,0.06,34.49
-8.76,-1.72,1.53,0.06,-0.05,-0.03,34.47
-8.88,-1.55,2.01,0.0,-0.07,-0.01,34.5
-8.93,-1.66,2.04,0.02,-0.01,0.03,34.49
-8.88,-1.66,2.12,-0.04,-0.05,0.02,34.47
-8.91,-1.65,1.79,0.01,-0.09,-0.01,34.47
-8.52,-1.43,2.14,0.13,-0.01,0.02,34.47
-8.81,-1.63,2.04,-0.02,0.09,0.04,34.48
-8.96,-1.58,2.12,-0.03,-0.0,-0.02,34.48
-9.07,-2.96,0.86,1.19,0.2,-0.07,34.49
-10.07,-1.18,1.39,0.75,-0.28,-0.23,34.49
-9.46,-0.21,1.04,0.43,0.09,-0.07,34.49
-8.94,-0.53,1.61,-0.32,-0.07,0.1,34.47
-8.62,-0.76,1.28,-0.13,-0.1,-0.06,34.49
-8.56,-2.69,1.62,-0.27,-0.14,-0.04,34.48
-8.99,-0.53,1.64,-0.58,-0.06,0.35,34.49
-9.14,-0.44,1.79,0.02,-0.03,-0.0,34.48
-9.02,-0.67,1.86,-0.05,-0.06,0.03,34.48
-9.16,-0.41,1.83,0.09,-0.01,0.02,34.48
-8.95,-0.55,1.79,0.04,0.01,0.0,34.48
-9.19,-1.0,1.83,0.01,0.02,0.01,34.5
-9.18,-0.43,0.72,0.04,0.11,0.04,34.47
-9.2,-0.53,1.19,-0.34,-0.16,0.1,34.49
-8.94,-0.41,1.84,-0.27,-0.09,0.27,34.48
-9.09,-0.96,0.91,-0.54,-0.29,0.04,34.46
-8.68,-1.08,2.23,-0.57,-0.09,0.13,34.49
-9.01,-0.79,1.54,0.77,0.17,-0.36,34.5
-8.81,-2.07,0.37,0.29,0.04,-0.0,34.49
-8.9,-1.25,0.9,-0.16,-0.16,-0.04,34.48
-8.13,-2.27,0.45,0.19,0.03,0.11,34.49
-9.09,-2.11,0.01,-0.2,-0.22,-0.24,34.48
-9.5,-0.26,-0.47,-0.61,0.13,0.31,34.47
-9.03,-0.83,0.71,0.27,-0.04,-0.09,34.47
-9.15,-0.78,0.34,0.02,-0.08,0.07,34.47
-8.67,-1.15,1.37,0.06,-0.29,0.04,34.46
-9.25,-0.79,0.67,-0.11,0.07,0.04,34.47
-9.59,-0.82,0.55,0.39,-0.19,-0.01,34.47
-8.93,-1.36,1.42,-0.47,-0.14,0.18,34.46
-9.09,-0.66,1.39,0.01,-0.04,0.02,34.49
-9.03,-0.85,1.61,0.0,-0.07,0.01,34.47
-9.19,-0.97,1.29,0.28,-0.16,-0.05,34.49
-9.08,-0.89,1.37,-0.04,0.02,0.01,34.46
-8.85,-0.86,1.47,-0.09,-0.05,0.02,34.49
-9.09,-0.83,1.55,0.19,-0.05,-0.04,34.49
-9.0,-0.96,1.45,0.09,-0.04,0.0,34.5
-9.03,-0.9,1.19,0.04,-0.04,-0.0,34.46
-9.07,-0.85,1.91,-0.17,-0.09,0.09,34.49
-9.25,-0.93,1.13,-0.01,-0.05,0.05,34.5
-9.5,-0.66,0.87,0.24,-0.01,-0.16,34.5
-9.36,-0.68,1.76,-0.19,-0.06,0.11,34.48
-8.99,-0.64,2.2,0.08,-0.08,0.01,34.5
-8.98,-0.77,2.1,0.01,-0.03,-0.0,34.52
-8.92,-0.76,2.3,0.07,-0.07,-0.01,34.52
-9.08,-0.84,2.53,-0.06,-0.14,0.02,34.5
-8.93,-0.82,2.23,-0.08,-0.02,0.02,34.51
-9.01,-0.9,2.08,-0.05,-0.09,0.02,34.51
-9.01,-0.86,1.78,-0.0,0.06,0.01,34.51
-8.8,-1.74,1.99,0.09,-0.04,-0.05,34.51
-9.15,-0.69,1.7,-0.08,-0.03,0.11,34.5
-9.01,-0.73,1.88,0.03,-0.06,-0.01,34.51
-9.01,-1.1,1.91,0.13,-0.12,0.02,34.49
-9.0,-0.99,1.61,0.02,0.0,0.0,34.52
-8.94,-0.77,1.85,0.06,-0.08,0.02,34.53
-9.07,-0.96,1.84,-0.07,-0.12,0.07,34.5
-8.95,-0.78,2.12,-0.07,-0.13,0.01,34.54
-8.98,-0.94,2.05,-0.03,0.0,0.02,34.51
-8.95,-0.87,2.0,-0.01,-0.07,0.01,34.52
-8.93,-0.77,1.97,-0.03,-0.08,0.01,34.55
-8.98,-0.87,2.1,-0.02,-0.03,0.02,34.52
-9.02,-0.81,2.06,-0.02,-0.15,0.03,34.52
-8.92,-0.83,1.97,-0.02,-0.06,0.03,34.52
-9.02,-0.85,2.11,0.01,-0.15,0.01,34.52
-8.98,-0.97,2.16,-0.01,-0.04,0.01,34.54
-8.84,-0.9,1.95,-0.0,-0.06,0.01,34.52
-8.97,-0.88,2.12,0.03,-0.01,-0.01,34.53
-8.97,-0.93,2.11,-0.03,-0.07,0.0,34.52
-8.9,-0.97,2.12,-0.01,0.01,0.02,34.53
-8.95,-0.9,2.15,-0.01,-0.07,0.01,34.53
-8.99,-0.96,2.01,-0.04,-0.02,0.01,34.52
-9.01,-1.06,1.91,-0.04,0.02,0.03,34.55
-9.01,-0.89,2.04,-0.03,-0.08,0.03,34.52
-8.99,-0.87,1.93,-0.01,-0.04,0.01,34.54
-8.9,-0.95,1.97,0.05,-0.1,0.0,34.55
-9.0,-0.95,2.03,-0.01,-0.03,0.0,34.54
-8.99,-0.89,1.96,-0.01,-0.08,0.01,34.52
-8.96,-0.96,2.15,0.03,-0.04,-0.0,34.57
-8.92,-1.08,2.11,-0.05,0.02,-0.01,34.54
-8.97,-0.7,2.14,0.01,0.08,0.05,34.53
-9.0,-0.95,2.2,0.07,-0.03,-0.03,34.52
-9.16,-0.97,2.14,0.01,-0.05,0.02,34.53
-8.91,-0.81,2.06,0.0,0.0,0.02,34.55
-9.04,-0.86,2.25,-0.0,-0.12,0.02,34.54
-9.01,-0.81,1.79,0.31,0.02,-0.06,34.54
-9.21,-1.11,1.86,-0.1,-0.17,0.01,34.53
-8.87,-1.46,1.94,0.01,-0.08,0.02,34.57
-8.88,-1.48,2.05,-0.01,-0.04,0.01,34.58
-8.82,-1.37,1.96,-0.01,0.01,0.05,34.57
-9.02,-1.2,2.09,0.02,-0.0,0.01,34.57
-8.9,-1.29,1.94,-0.05,0.02,0.02,34.56
-8.87,-1.33,1.81,-0.01,-0.1,0.03,34.54
-8.9,-1.28,1.99,0.01,-0.03,0.02,34.57
-8.99,-1.24,1.76,0.0,-0.06,0.01,34.55
-8.99,-1.09,1.96,-0.02,-0.05,0.02,34.56
-8.88,-1.21,2.0,0.0,-0.06,0.01,34.56
-8.94,-1.22,1.79,-0.03,-0.03,0.01,34.56
-8.97,-1.24,1.98,0.01,-0.04,0.01,34.56
-8.88,-1.28,1.62,-0.04,0.08,0.01,34.56
-8.98,-1.38,2.07,0.06,0.02,0.01,34.56
-8.74,-1.9,2.1,-0.07,-0.12,0.06,34.57
-8.94,-1.42,2.14,-0.01,-0.07,0.0,34.58
-8.9,-1.46,2.01,0.01,-0.02,0.01,34.56
-8.95,-1.41,2.03,0.01,-0.06,0.01,34.58
-8.92,-2.09,1.66,-0.07,-0.13,0.09,34.55
-9.02,-1.26,1.3,0.06,-0.05,-0.09,34.57
-9.01,-1.4,1.63,-0.28,-0.12,0.2,34.58
-8.87,-1.3,0.96,0.21,0.06,-0.13,34.61
-9.08,-0.87,0.4,-0.72,-0.13,0.35,34.56
-8.23,-2.77,1.53,0.51,-0.26,-0.06,34.57
-8.85,-0.94,2.29,0.2,-0.03,-0.08,34.57
-8.99,-0.79,2.0,-0.01,-0.01,0.02,34.58
-8.94,-0.74,2.33,-0.04,-0.15,-0.01,34.58
-8.93,-0.82,2.38,-0.02,-0.01,0.02,34.6
-9.07,-0.85,2.34,-0.01,-0.01,0.02,34.57
-8.87,-0.94,2.25,0.04,0.0,-0.01,34.6
-8.91,-0.9,2.21,-0.0,-0.04,0.01,34.57
-8.92,-0.76,2.37,-0.02,-0.04,0.0,34.58
-8.89,-0.59,2.09,0.14,-0.02,0.11,34.6
-8.96,-0.47,1.8,-0.01,-0.07,0.01,34.6
-8.95,-0.47,2.16,-0.01,-0.04,0.01,34.59
-8.96,-0.56,2.19,-0.05,-0.05,0.0,34.6
-9.03,-0.56,2.01,-0.01,-0.04,0.05,34.59
-9.09,-0.36,1.87,0.05,0.01,-0.01,34.59
-9.11,-0.68,1.92,-0.01,-0.06,-0.0,34.59
-9.07,-0.43,1.92,-0.02,-0.04,0.02,34.59
-9.11,-0.55,1.82,-0.02,-0.05,0.03,34.59
-8.95,-0.71,1.81,0.06,-0.1,0.04,34.59
-8.98,-0.67,1.98,0.05,-0.02,0.02,34.6
-9.15,-0.79,1.58,-0.05,-0.0,0.03,34.59
-9.05,-0.84,1.71,-0.02,-0.08,0.02,34.6
-9.11,-0.76,1.71,-0.04,-0.08,-0.0,34.59
-9.17,-0.74,1.83,0.0,-0.02,0.01,34.6
-8.99,-0.67,1.58,-0.02,0.02,0.01,34.61
-9.05,-0.78,1.73,-0.01,-0.08,0.0,34.61
-9.04,-0.75,1.76,-0.01,-0.05,0.02,34.61
-9.05,-0.76,1.67,-0.03,-0.09,0.01,34.62
-9.05,-0.8,1.81,0.01,-0.01,0.02,34.6
-9.11,-0.78,1.52,-0.01,-0.06,0.01,34.61
-9.12,-0.76,1.62,-0.01,-0.1,0.01,34.62