accel_x,accel_y,accel_z,gyro_x,gyro_y,gyro_z,temperature
-9.08,-0.71,0.69,-0.07,-0.19,-0.01,34.56
-9.11,-0.51,0.17,-0.27,-0.22,0.01,34.57
-8.87,-0.05,-0.9,0.25,0.19,-0.08,34.59
-8.99,-2.8,-0.4,-0.66,-0.18,0.13,34.55
-9.36,-0.02,0.42,-0.09,-0.06,0.07,34.59
-9.11,-0.07,-0.01,-0.09,0.04,-0.03,34.57
-9.15,-0.11,-0.01,-0.04,-0.07,0.02,34.56
-8.86,0.76,-1.16,0.45,0.49,0.05,34.57
-8.95,-2.62,1.11,0.29,-0.03,0.21,34.58
-9.62,-1.39,0.52,0.84,-0.13,-0.22,34.58
-8.32,0.44,-0.75,-1.19,-0.23,-0.14,34.59
-6.98,-0.15,-3.07,-0.6,-0.1,0.28,34.57
-9.38,-2.0,0.32,-0.89,-0.04,-0.2,34.59
-8.55,-2.64,-0.25,1.5,0.27,0.15,34.59
-9.11,-0.43,-0.31,-0.34,0.56,-0.35,34.6
-8.56,-1.34,1.17,1.84,0.24,-0.05,34.59
-8.93,0.51,0.67,-1.25,-0.02,-0.01,34.62
-7.12,0.48,0.6,-0.05,0.05,-0.0,34.59
-9.26,-1.29,-3.56,0.81,-0.33,0.04,34.58
-9.23,-1.02,0.32,-0.9,-0.54,-0.07,34.59
-8.79,-3.56,0.15,-0.93,0.24,-0.07,34.59
-9.43,-1.9,-2.11,0.07,-0.43,0.0,34.58
-8.66,-1.11,1.08,0.24,-0.18,-0.07,34.58
-8.38,-2.85,0.11,-0.44,0.14,-0.18,34.61
-8.96,-3.02,2.16,-0.26,-0.31,0.18,34.58
-9.19,-1.75,1.08,0.51,0.28,0.01,34.6
-8.85,-0.38,1.37,0.15,-0.28,-0.11,34.59
-8.96,-2.16,-1.62,-0.31,-0.37,-0.12,34.6
-8.68,-0.35,1.68,-0.14,-0.09,-0.34,34.6
-9.13,-1.32,-0.32,-0.3,0.1,-0.03,34.58
-8.25,-2.24,0.95,-0.15,0.06,0.13,34.57
-10.69,-1.63,-0.34,-0.2,-0.39,-0.16,34.58
-8.74,-0.23,0.51,-0.24,-0.03,-0.05,34.59
-8.18,-0.68,-1.73,-0.34,0.21,0.15,34.59
-8.38,-2.0,-0.05,-0.4,-0.01,-0.0,34.58
-11.24,-0.44,-1.06,0.19,-0.52,-0.26,34.59
-9.09,-1.37,1.4,0.47,0.08,-0.09,34.58
-8.53,-1.76,-0.81,-0.98,0.05,0.0,34.6
-9.79,-2.69,-0.84,-2.41,-0.8,0.33,34.58
-9.6,-1.97,-0.07,-1.03,-0.3,-0.17,34.57
-8.69,-0.27,0.22,0.2,0.22,-0.05,34.57
-8.45,-1.73,0.79,-0.12,-0.03,0.08,34.57
-8.37,-2.6,-0.6,0.1,-0.22,-0.05,34.57
-9.01,-0.95,1.38,0.1,0.15,-0.04,34.58
-10.72,-2.03,-0.29,0.25,-0.32,0.09,34.58
-8.14,-2.66,0.82,-0.31,0.27,0.07,34.57
-9.28,-1.29,2.14,0.2,-0.24,-0.08,34.56
-9.06,-2.18,0.3,0.31,0.14,-0.07,34.57
-8.55,-2.37,0.9,0.08,-0.0,0.09,34.6
-9.45,-3.46,-0.18,-0.68,-0.37,0.21,34.59
-9.13,0.4,0.06,-2.0,-0.2,0.02,34.58
-9.13,-2.32,0.78,-0.67,-0.18,0.04,34.58
-10.56,-1.15,-0.3,-0.18,-0.65,-0.33,34.57
-8.61,-0.77,0.26,0.26,-0.08,-0.11,34.55
-9.03,-2.62,1.17,-0.54,-0.3,0.29,34.59
-7.62,-4.06,-0.96,0.82,0.35,-0.03,34.57
-8.53,-0.78,0.37,0.2,0.21,-0.05,34.57
-11.2,-1.78,0.75,-0.63,-0.9,0.2,34.56
-7.69,-2.47,0.37,0.01,0.12,0.1,34.56
-8.88,-0.97,1.49,0.21,-0.09,-0.08,34.58
-7.29,-0.78,-1.1,-0.32,0.04,0.01,34.57
-8.87,-2.82,1.35,0.07,0.27,0.02,34.58
-10.85,-2.48,-0.35,0.65,-0.22,-0.32,34.57
-8.78,-0.65,0.36,-1.15,0.1,-0.01,34.56
-8.93,-2.73,1.14,-1.93,-0.54,0.22,34.55
-9.21,-2.86,0.31,-0.84,-0.18,0.14,34.58
-9.03,-0.65,0.51,0.08,0.4,-0.05,34.57
-9.22,-2.49,0.93,-0.36,-0.28,0.15,34.57
-8.94,-2.86,-0.07,0.21,0.35,-0.08,34.54
-8.53,-1.64,1.96,0.31,0.05,-0.09,34.54
-7.81,-0.83,-1.18,-0.36,0.21,-0.03,34.54
-8.44,-2.36,0.31,-0.28,0.15,0.11,34.56
-7.7,-3.72,-0.79,0.91,0.2,0.09,34.53
-9.2,-1.43,1.94,0.36,0.01,-0.07,34.54
-9.09,-1.97,-0.42,-0.28,-0.34,0.16,34.56
-8.84,-3.17,1.07,-0.2,-0.01,0.02,34.53
-10.83,-2.94,3.1,0.8,-0.21,0.01,34.53
-8.54,-0.64,1.04,-0.54,0.11,-0.04,34.54
-9.63,-2.83,0.97,-1.57,-0.58,0.14,34.55
-8.26,-1.78,1.52,-0.86,-0.28,-0.22,34.53
-8.71,0.6,0.19,-1.26,-0.01,0.34,34.52
-9.44,-0.4,-1.37,-0.55,-0.21,0.01,34.52
-8.4,-2.82,0.53,-0.34,0.15,0.18,34.5
-10.54,-1.77,0.14,0.14,-0.07,-0.11,34.52
-9.58,-1.02,0.09,-0.48,-0.19,0.04,34.51
-9.46,-2.87,1.26,-0.08,-0.28,0.25,34.52
-9.5,-1.75,0.35,-0.04,0.19,0.08,34.52
-9.04,-0.33,0.82,0.35,-0.07,-0.15,34.52
-7.16,-0.81,-2.77,-0.65,-0.1,-0.09,34.54
-8.11,-2.68,1.26,0.31,0.2,0.07,34.52
-11.12,-1.71,-0.19,0.31,-0.42,-0.18,34.49
-8.86,0.29,0.51,-1.62,0.06,0.35,34.51
-9.04,-2.07,0.89,-1.23,-0.06,0.01,34.5
-9.9,-0.07,1.32,0.22,-0.13,-0.36,34.52
-7.65,-1.17,-0.96,-0.62,-0.22,-0.2,34.5
-8.71,-2.59,0.51,-0.02,0.25,0.03,34.48
-9.07,-0.98,1.22,0.28,-0.27,-0.28,34.49
-8.27,-1.1,-0.58,-0.48,0.21,0.06,34.47
-9.0,-2.75,1.52,-0.19,0.25,0.24,34.49
-11.03,-1.89,-0.08,0.42,-0.32,-0.18,34.49
-8.38,-0.92,0.79,0.37,0.29,-0.15,34.5
-9.39,-2.76,2.39,-0.34,-0.48,0.22,34.5
-7.78,-3.09,-0.35,0.17,0.72,-0.16,34.5
-9.09,-1.91,0.55,0.78,0.05,0.23,34.49
-9.12,0.24,-2.36,-2.28,-0.35,-0.31,34.47
-8.86,-2.87,0.86,-0.42,0.1,-0.02,34.48
-9.91,-3.05,-2.4,0.05,0.13,0.02,34.48
-9.79,-0.33,0.75,0.4,0.02,-0.18,34.48
-9.39,-0.54,-1.98,-0.87,0.02,0.01,34.49
-9.71,-3.73,1.22,-0.49,-0.16,0.29,34.47
-7.98,-2.65,-0.55,-0.26,0.02,0.06,34.48
-10.26,-1.21,1.57,0.5,-0.16,-0.35,34.46
-8.58,-0.64,0.16,-0.29,-0.03,-0.07,34.48
-12.73,-2.98,1.13,-0.61,-0.65,0.45,34.46
-7.73,-2.59,0.49,0.28,0.1,-0.02,34.46
-7.83,-3.26,-0.85,-0.31,-0.17,0.11,34.48
-9.9,0.89,-0.85,-1.97,-0.24,-0.04,34.46
-8.11,-3.03,0.19,-0.82,-0.27,0.16,34.44
-13.35,-2.47,0.13,-0.28,-0.57,0.18,34.47
-8.23,-3.25,0.81,0.16,0.14,-0.05,34.45
-9.46,-2.36,-1.41,0.32,-0.32,-0.11,34.46
-8.12,-0.81,0.5,0.35,0.42,-0.02,34.45
-10.75,-1.85,-1.84,-0.56,-0.62,0.39,34.45
-7.02,-3.23,-0.42,-0.42,-0.06,0.61,34.44
-10.02,-2.03,-0.4,0.17,-0.5,-0.18,34.45
-8.79,-1.29,1.07,0.41,0.22,-0.13,34.43
-7.17,0.15,-2.31,-1.37,-0.22,0.18,34.44
-8.71,-2.46,0.01,-2.0,-0.27,0.09,34.44
-9.29,1.01,-0.85,-0.48,-0.22,-0.44,34.45
-9.91,-2.8,-1.58,0.26,-0.76,0.37,34.42
-9.42,-2.14,-0.65,-0.07,-0.14,0.08,34.42
-8.96,-1.71,0.7,0.58,-0.23,-0.18,34.44
-11.49,-2.94,-2.16,-0.13,-0.82,0.36,34.44
-8.88,-3.42,0.65,-0.03,-0.01,-0.1,34.4
-11.69,-2.38,0.07,0.33,-0.36,-0.32,34.42
-8.63,-0.18,0.97,-0.76,0.07,-0.03,34.43
-10.07,-2.71,1.25,-0.18,-0.34,0.31,34.43
-7.82,-1.99,-0.53,0.26,-0.1,0.07,34.41
-11.94,-3.11,-0.97,0.49,-0.3,-0.29,34.41
-8.43,-1.18,0.57,-0.48,0.31,-0.13,34.42
-9.62,0.12,-1.26,-2.14,0.09,0.35,34.42
-9.03,-3.08,-0.57,-0.89,-0.49,-0.06,34.43
-7.8,-1.08,-0.41,-0.39,0.13,-0.02,34.39
-13.07,-2.22,1.42,0.29,-0.38,0.28,34.41
-7.87,-2.75,-0.89,-0.32,-0.0,-0.01,34.4
-11.36,-1.03,-0.29,-0.25,-0.42,-0.27,34.41
-8.71,-0.69,0.69,0.18,0.32,-0.18,34.39
-10.7,-3.19,1.76,-0.14,-0.41,0.1,34.39
-8.06,-3.22,0.62,-0.51,0.11,0.02,34.39
-9.62,-2.36,2.78,0.87,-0.14,-0.15,34.41
-9.4,-1.63,-0.34,-0.15,0.08,0.1,34.38
-8.45,-2.98,1.07,-0.02,0.1,0.08,34.38
-10.57,-2.27,0.2,0.01,-0.64,-0.07,34.38
-9.15,-0.09,0.01,-0.78,0.12,-0.01,34.37
-9.08,-2.52,0.44,-2.03,-0.73,0.16,34.39
-8.78,-3.31,-2.31,-0.18,-0.05,-0.26,34.36
-9.12,-1.26,0.83,-0.08,0.08,-0.08,34.37
-8.21,-2.38,-1.47,0.33,-0.27,0.19,34.37
-8.34,-3.16,0.52,-0.44,0.18,-0.04,34.38
-8.62,-1.98,1.4,0.6,0.09,-0.15,34.37
-8.15,-2.03,-1.03,-0.73,0.2,0.13,34.37
-8.0,-3.22,1.13,-0.25,0.21,0.11,34.35
-11.6,-2.39,-0.05,0.53,-0.28,-0.41,34.35
-8.03,-1.44,-0.29,-0.29,0.13,0.05,34.34
-9.13,-3.55,0.85,-0.11,-0.38,0.49,34.34
-8.91,-2.37,0.7,0.83,0.34,0.12,34.34
-8.91,-1.17,-0.15,0.24,-0.09,-0.33,34.35
-9.19,-3.59,0.43,-0.25,-0.02,0.08,34.35
-8.18,-3.31,0.57,-0.15,-0.06,0.08,34.35
-8.0,-2.17,-0.87,0.07,-0.33,-0.05,34.33
-8.96,0.14,-0.97,-2.44,-0.14,0.12,34.35
-8.43,-5.19,0.58,-0.81,-0.58,-0.66,34.34
-7.87,-1.03,-0.39,1.17,0.47,0.35,34.32
-11.06,-2.97,0.19,-0.64,-1.16,0.17,34.33
-7.73,-2.91,0.92,0.49,0.15,0.01,34.31
-7.02,-3.17,-1.7,0.17,-0.34,0.29,34.32
-8.79,0.6,-0.75,-2.47,-0.19,-0.37,34.34
-9.61,-0.06,1.06,-0.37,-0.39,-0.11,34.32
-8.83,0.23,0.2,-0.42,0.53,0.16,34.31
-7.94,-2.56,-0.53,0.06,0.14,0.1,34.33
-8.67,-6.47,-1.62,1.35,0.52,-0.14,34.29
-8.83,-2.28,0.14,1.38,0.11,-0.0,34.32
-8.52,-0.91,-0.64,-0.07,0.05,0.14,34.29
-8.34,-4.19,0.45,0.43,-0.08,0.31,34.29
-9.22,-1.87,0.11,0.47,-0.05,-0.44,34.3
-9.03,-0.88,-1.1,-2.11,-0.08,0.3,34.3
-8.86,-2.92,-1.8,0.8,0.45,-0.13,34.31
-8.92,-0.93,-2.33,-0.46,-0.02,0.11,34.29
-8.73,-2.71,-1.83,0.06,-0.1,-0.04,34.29
-9.1,-0.66,-0.26,0.62,0.07,-0.03,34.28
-9.37,-1.9,-0.8,0.71,-0.26,0.09,34.29
-10.53,-4.23,-0.74,0.64,-0.55,-0.34,34.28
-9.03,-2.11,0.64,0.72,0.11,-0.0,34.28
-7.53,-1.16,-3.24,-0.48,-0.37,-0.01,34.27
-8.61,-3.03,-0.85,-2.07,-0.41,-0.14,34.26
-9.24,-0.53,1.1,-0.82,-0.52,-0.32,34.27
-8.4,-1.48,-0.11,-0.77,0.03,0.01,34.27
-8.43,-3.65,0.71,-0.13,-0.4,0.37,34.26
-8.0,-1.74,-1.68,-0.94,0.05,0.22,34.28
-8.87,-0.4,-0.53,-0.21,-0.03,-0.14,34.25
-9.67,-2.6,0.97,-1.4,-0.73,-0.07,34.26
-9.79,-3.21,0.11,-1.75,-0.24,-0.29,34.25
-9.08,-0.59,0.18,-0.27,-0.21,-0.32,34.25
-8.88,-1.22,0.91,0.44,0.22,-0.45,34.24
-8.28,0.3,-2.64,-0.93,0.18,0.02,34.24
-7.31,-4.85,0.43,-2.65,-0.65,0.34,34.26
-12.16,0.43,0.08,0.4,-0.41,-0.65,34.24
-8.81,-1.11,-0.77,-0.94,0.02,-0.24,34.24
-8.34,-1.98,1.23,0.03,0.21,-0.18,34.26
-12.84,-2.43,-0.53,-0.37,-0.16,0.52,34.24
-9.4,-2.25,0.23,0.75,-0.08,-0.13,34.24
-10.38,-4.98,-0.95,-0.12,-0.09,0.4,34.22
-10.01,-1.54,1.4,-0.46,0.14,0.05,34.23
-8.94,-0.14,-0.68,0.03,-0.16,0.13,34.24
-7.8,-1.22,2.44,-1.09,-0.29,-0.01,34.21
-6.85,-1.9,-1.68,0.36,-0.28,0.2,34.2
-8.15,-0.27,0.73,0.09,-0.0,-0.17,34.21
-8.83,-1.56,-0.56,-0.41,-0.26,-0.03,34.2
-13.95,-0.91,-0.86,0.29,-0.76,0.31,34.21
-8.63,-1.22,0.78,0.07,0.02,0.25,34.21
-8.47,-1.68,-1.08,-0.47,0.26,0.07,34.22
-11.45,-0.97,-1.3,-0.15,-0.55,-0.38,34.23
-8.86,-0.59,0.71,0.13,-0.31,-0.19,34.21
-7.47,-0.99,-0.91,-0.9,-0.12,0.04,34.21
-12.4,-0.33,-1.14,-0.45,-0.74,0.06,34.21
-9.35,-0.88,-1.04,-2.0,-0.02,0.01,34.22
-7.99,0.35,-1.41,-1.5,-0.58,-0.23,34.21
-7.2,-0.01,0.24,-0.57,0.25,0.25,34.21
-13.35,-2.18,0.3,0.07,-0.76,0.38,34.18
-8.56,-2.32,1.89,-0.46,0.4,0.1,34.21
-8.53,0.12,-1.33,-0.14,0.06,0.07,34.21
-13.06,-2.99,-0.64,0.25,-0.93,-0.34,34.18
-7.91,0.45,0.3,0.27,0.16,-0.06,34.21
-7.74,0.46,-1.8,-0.72,0.33,0.05,34.22
-9.98,-1.48,1.21,-0.4,-0.48,0.06,34.2
-8.12,-2.26,-0.07,-0.02,0.3,0.12,34.2
-10.52,-1.1,-1.69,0.2,-0.12,-0.02,34.21
-7.95,-0.92,1.06,0.78,0.5,-0.2,34.22
-9.55,1.08,-1.87,-1.67,-0.02,0.19,34.2
-8.81,-1.38,0.47,-1.62,0.1,0.06,34.19
-8.74,1.41,-0.23,-1.62,-0.1,-0.27,34.19
-6.78,-0.29,-0.59,-0.95,0.26,-0.16,34.19
-10.86,-2.12,-1.75,0.69,-0.51,0.42,34.21
-8.28,-1.85,0.64,-0.29,0.23,0.07,34.2
-7.73,-2.82,-0.23,0.93,0.52,-0.05,34.18
-9.87,-1.2,1.55,0.33,-0.06,-0.18,34.19
-7.98,-2.19,0.76,-0.34,0.02,0.02,34.19
-10.07,-2.23,1.13,-0.36,-0.26,0.26,34.19
-7.88,-2.58,0.16,0.29,0.05,-0.0,34.2
-6.95,-4.37,-0.5,0.82,0.59,0.04,34.19
-9.04,-1.22,2.02,0.21,-0.2,-0.22,34.19
-9.07,-2.63,0.46,-0.14,-0.15,0.02,34.17
-10.87,-3.55,0.89,-0.16,-0.52,0.36,34.17
-8.62,-3.25,0.09,-1.93,-0.23,0.3,34.18
-8.84,0.64,0.4,-1.32,-0.2,-0.35,34.18
-8.52,-1.47,-0.04,-0.46,0.25,0.1,34.17
-9.61,-3.18,1.26,-0.01,-0.25,0.32,34.19
-7.0,-2.94,1.19,0.3,0.1,0.02,34.17
-11.55,-2.04,-1.09,-0.06,-0.71,-0.24,34.17
-8.73,-1.07,2.99,-0.05,0.17,-0.04,34.18
-7.86,-4.19,0.75,-0.17,0.11,-0.07,34.19
-9.77,-4.02,2.02,-0.43,-0.18,0.31,34.17
-7.46,-2.63,1.21,-0.07,0.26,0.13,34.19
-12.35,-4.01,1.29,0.08,-0.59,-0.36,34.19
-8.49,-1.41,2.81,0.31,0.3,-0.14,34.19
-8.04,-3.21,1.13,-0.54,0.14,-0.0,34.17
-9.36,-3.55,2.14,-0.13,-0.6,-0.06,34.18
-9.16,1.93,0.46,-0.08,-0.36,-0.51,34.16
-7.65,-1.67,-1.0,-0.26,-0.18,-0.12,34.17
-8.74,-0.61,0.04,-0.75,0.28,0.2,34.16
-9.83,-0.67,-0.24,0.57,0.32,-0.14,34.15
-12.21,-6.88,-1.79,1.05,-0.04,-0.77,34.15
-7.72,-0.8,-0.28,-0.47,0.31,-0.17,34.16
-8.43,0.67,-4.24,0.16,0.11,0.07,34.16
-8.92,-0.27,0.17,-0.36,0.32,0.1,34.14
-9.25,-0.52,-2.53,1.68,0.06,-0.02,34.16
-9.46,0.93,0.92,0.43,-0.28,-0.32,34.17
-8.47,0.24,0.07,0.03,0.0,0.06,34.17
-10.83,-0.83,-2.22,-2.71,-0.22,-0.04,34.15
-10.09,-1.39,-1.4,-1.03,-0.01,0.08,34.15
-8.34,1.41,1.45,0.02,0.18,-0.16,34.14
-8.45,0.42,-1.12,-0.25,0.22,0.0,34.15
-10.08,-1.05,0.83,-0.41,-0.26,0.23,34.16
-8.26,-0.42,-0.71,-0.31,0.29,0.05,34.14
-9.95,-0.14,-2.45,0.06,-0.27,-0.12,34.15
-8.84,1.15,1.07,0.27,0.15,-0.08,34.15
-8.64,-0.53,-0.51,-0.83,0.07,-0.03,34.15
-9.84,-1.12,1.88,-0.22,0.03,0.23,34.14
-8.09,-0.57,-0.39,0.04,0.09,0.02,34.14
-12.05,0.73,-0.65,0.15,-0.58,-0.34,34.15
-8.47,1.78,-0.8,0.01,0.11,-0.06,34.13
-8.11,3.23,-1.6,-2.21,0.28,0.5,34.13
-8.56,-1.17,0.62,-0.97,0.21,-0.16,34.14
-13.07,0.29,0.47,0.28,-0.73,-0.56,34.13
-8.74,1.68,-0.22,0.23,0.05,0.02,34.14
-13.01,-0.14,0.18,-0.22,-0.24,0.34,34.14
-9.45,-0.91,0.33,-0.37,0.26,0.04,34.13
-9.42,0.01,-1.56,0.67,0.12,-0.05,34.12
-8.67,1.12,0.52,0.29,-0.11,-0.13,34.12
-8.05,-1.18,-0.88,-0.07,-0.1,-0.1,34.13
-13.79,0.98,-0.28,-0.01,-0.5,0.3,34.14
-8.58,-0.58,0.62,0.46,0.2,0.01,34.13
-8.05,-0.15,-1.48,0.09,0.07,0.13,34.14
-9.49,1.16,1.12,0.48,-0.27,-0.1,34.14
-8.79,1.39,-0.68,-0.6,0.52,-0.02,34.13
-8.23,-1.2,0.12,-0.09,0.21,0.04,34.14
-12.07,0.13,-0.87,0.23,-0.57,-0.16,34.13
-8.27,2.05,0.26,0.29,-0.06,-0.04,34.14
-8.22,0.32,0.02,-0.24,0.12,-0.1,34.11
-13.4,1.57,-0.53,-0.09,-0.77,0.19,34.12
-8.29,-0.3,0.92,-0.1,0.18,0.08,34.15
-8.5,-0.54,0.34,-2.0,0.15,-0.01,34.13
-8.94,3.4,0.38,-1.06,-0.1,-0.57,34.13
-7.38,0.66,-0.27,-0.65,-0.07,-0.19,34.12
-12.94,0.51,0.32,0.07,-0.75,0.32,34.17
-7.98,-1.11,-0.13,0.09,0.25,0.14,34.13
-10.28,-1.84,-2.52,0.13,-0.15,0.03,34.12
-9.3,1.4,1.26,0.55,0.07,-0.02,34.13
-10.0,0.35,-0.59,-0.52,0.23,-0.1,34.14
-10.66,-0.41,0.25,-0.18,-0.38,0.26,34.13
-8.69,-0.51,0.42,0.66,0.1,0.13,34.12
-12.0,0.46,-1.39,0.39,-0.33,-0.35,34.12
-7.96,2.34,0.6,-0.33,0.12,-0.07,34.1
-7.99,1.0,-2.38,-0.19,-0.24,0.23,34.12
-9.3,0.4,0.07,-1.37,0.27,0.02,34.14
-10.05,2.04,-0.99,-1.43,0.4,-0.81,34.11
-9.43,-0.44,-1.07,-0.88,0.02,0.16,34.13
-10.63,-0.6,0.81,-0.05,-0.17,0.31,34.12
-8.21,-0.66,0.3,-0.58,0.22,-0.07,34.13
-6.77,-1.6,-1.98,0.4,0.03,-0.02,34.12
-9.93,0.88,1.08,0.22,-0.34,-0.16,34.13
-7.97,1.17,0.31,0.04,-0.02,-0.0,34.12
-12.78,1.11,0.85,-0.07,-0.68,0.33,34.12
-8.66,-0.55,1.42,0.16,0.29,0.1,34.12
-8.21,1.57,-1.21,0.39,0.05,0.1,34.12
-12.35,0.14,1.09,-0.01,-0.67,-0.14,34.12
-8.62,1.83,1.33,0.51,0.22,-0.16,34.11
-8.36,3.64,-2.29,-1.62,0.2,0.21,34.09
-9.02,0.6,0.2,-2.23,0.3,0.06,34.1
-9.37,1.5,-2.26,-0.63,0.28,-0.05,34.12
-9.59,0.67,1.97,0.61,0.02,-0.06,34.09
-8.4,-0.08,-0.81,-0.04,-0.1,-0.08,34.09
-11.66,0.74,2.54,-0.49,-0.42,0.32,34.12
-8.63,-0.81,-0.78,-0.16,0.1,-0.01,34.08
-8.22,-0.11,-3.22,0.13,-0.11,-0.06,34.1
-9.31,1.55,1.6,0.25,0.09,-0.07,34.1
-8.85,-0.18,-0.59,0.08,0.12,-0.09,34.09
-12.92,0.56,0.79,0.2,-0.96,0.3,34.09
-7.98,-1.24,0.67,-0.18,0.1,0.0,34.08
-6.92,-1.03,-1.53,0.77,0.08,-0.11,34.09
-8.49,0.76,1.47,-0.22,0.21,0.01,34.09
-8.0,3.19,-2.8,-3.17,0.86,0.07,34.09
-9.03,-0.72,0.34,-0.59,0.09,-0.15,34.07
-14.02,0.64,-1.21,-0.12,-1.08,-0.37,34.07
-7.89,1.13,0.43,0.69,0.12,0.03,34.08
-7.75,0.81,-1.29,-1.34,0.32,-0.16,34.09
-9.13,-1.26,1.09,-0.67,0.06,0.12,34.08
-7.56,-1.15,-0.54,0.32,0.34,-0.2,34.08
-9.65,1.19,1.13,0.37,-0.06,-0.1,34.08
-9.14,-0.86,-0.49,-0.34,0.19,0.05,34.06
-9.44,0.0,0.96,-0.68,-0.16,0.13,34.07
-7.97,-2.37,0.41,-0.77,0.6,0.01,34.07
-9.76,-0.81,-1.0,0.25,0.01,-0.17,34.06
-8.33,0.62,1.82,0.23,-0.12,-0.06,34.07
-8.61,0.44,-0.73,-0.65,0.1,0.11,34.05
-8.85,-0.14,0.75,-0.46,-0.59,0.15,34.06
-9.06,1.01,-0.88,0.44,0.15,-0.01,34.05
-10.67,0.58,2.2,0.29,-0.11,-0.32,34.05
-8.07,1.23,0.62,0.2,0.02,-0.01,34.05
-9.57,-0.71,-1.95,0.27,-0.34,0.35,34.05
-7.96,0.04,0.87,-0.41,0.19,0.17,34.03
-7.75,-0.28,-1.72,0.95,0.16,0.06,34.05
-8.9,1.18,1.07,-0.13,-0.31,-0.2,34.05
-8.77,2.33,-0.57,-2.11,0.38,0.12,34.02
-8.9,-0.17,0.68,-0.5,0.2,-0.1,34.04
-7.39,-0.81,-1.88,0.38,0.25,-0.17,34.04
-8.46,0.64,2.08,0.68,-0.01,-0.14,34.04
-8.27,0.61,-0.67,-0.44,0.56,-0.0,34.04
-13.64,1.82,0.23,-0.47,-0.69,0.26,34.05
-8.56,-0.72,0.96,-0.17,0.25,0.11,34.06
-7.08,-1.9,-2.09,1.31,-0.05,-0.02,34.02
-9.64,0.63,1.45,0.46,-0.46,-0.09,34.03
-10.89,1.48,1.44,0.37,-0.14,0.11,34.03
-10.55,0.58,-2.97,0.12,-0.64,0.29,34.02
-8.27,-0.91,1.37,-0.01,0.16,0.01,34.03
-9.49,1.53,-0.74,-1.14,0.36,0.12,34.03
-9.57,-0.25,0.1,-0.45,-0.17,0.02,34.02
-8.23,-0.87,1.37,0.12,0.2,0.1,34.03
-7.55,0.39,-2.25,0.92,0.16,-0.04,34.0
-11.21,1.22,1.67,0.51,-0.13,-0.21,34.0
-8.9,1.54,0.75,-0.41,0.1,-0.03,34.02
-7.29,1.66,-1.42,-1.11,0.56,-0.1,33.99
-10.23,-0.57,1.47,-0.94,-0.38,0.12,34.0
-7.81,-0.17,-0.3,-0.8,0.27,-0.13,34.01
-11.14,0.13,-0.13,0.49,-0.49,-0.15,33.99
-8.89,0.11,-0.3,1.64,-0.1,-0.2,33.99
-9.32,0.24,-0.61,0.09,0.15,0.18,34.0
-8.91,0.61,-2.72,0.21,-0.16,0.26,33.99
-8.91,2.54,-1.79,0.5,-0.29,-0.39,33.99
-8.67,1.95,-1.6,-1.12,-0.01,0.04,33.99
-8.43,-1.96,0.06,1.36,0.04,0.34,33.98
-10.58,-0.88,1.06,0.59,-0.16,-0.39,33.97
-8.5,1.53,1.0,-0.02,-0.02,-0.39,33.96
-9.01,-2.03,0.66,-0.99,-0.5,0.5,33.99
-9.16,0.59,1.27,-0.58,-0.29,-0.25,33.97
-8.0,-1.3,-1.16,-2.44,0.17,0.35,33.99
-8.35,-0.56,-1.74,0.02,0.16,-0.32,34.01
-8.77,0.74,-0.49,-2.54,0.13,-0.66,33.97
-15.28,-0.03,-0.12,-0.26,-0.89,0.59,33.98
-8.95,-1.3,0.62,0.14,0.08,0.12,33.99
-8.98,-0.42,0.64,0.82,0.03,-0.48,33.98
-10.04,0.16,1.01,0.5,0.01,-0.19,33.96
-7.03,0.2,0.69,0.35,-0.04,0.3,33.96
-12.14,-1.07,-0.46,-0.31,-0.67,0.36,33.97
-7.97,-1.59,-0.2,-0.55,0.09,-0.05,33.96
-11.3,0.26,-0.84,0.12,-0.67,0.0,33.97
-8.57,0.22,2.03,0.62,-0.01,-0.09,33.96
-7.04,0.91,-1.06,-0.52,0.05,0.09,33.96
-8.87,-1.04,2.71,-0.13,-0.05,0.04,33.94
-9.38,0.71,0.62,0.24,0.25,0.0,33.96
-9.23,0.33,1.47,-0.35,-0.22,-0.21,33.97
-9.94,1.27,-0.68,-2.89,0.26,0.19,33.96
-8.93,-0.98,-1.2,0.63,0.26,-0.12,33.94
-9.9,-0.15,0.86,0.23,-0.22,-0.2,33.95
-8.66,-0.57,0.65,-0.41,0.03,0.04,33.95
-10.36,-1.49,2.18,-0.41,-0.33,0.36,33.96
-9.13,-1.48,0.07,-0.05,0.29,-0.1,33.93
-8.19,0.64,-0.14,-1.02,0.01,0.14,33.94
-8.85,-1.28,1.19,-0.72,-0.02,0.18,33.96
-8.93,-0.29,-1.74,-0.27,0.09,-0.03,33.93
-9.39,1.03,-2.07,-1.43,-0.0,-0.06,33.93
-8.55,-1.55,0.3,-1.03,-0.07,-0.2,33.92
-7.18,-0.89,-1.29,0.23,-0.13,-0.09,33.92
-8.7,-0.82,0.59,0.77,0.08,-0.08,33.92
-7.41,0.77,-3.1,-1.0,0.27,-0.14,33.94
-9.0,-0.96,0.75,-1.01,0.05,-0.29,33.95
-6.79,-0.81,-1.74,1.11,0.03,0.21,33.94
-10.12,-0.14,1.19,0.76,-0.2,-0.21,33.94
-8.84,-0.43,-0.03,0.45,0.12,0.1,33.92
-10.19,-1.3,0.38,-0.21,0.32,-0.02,33.92
-11.65,-0.16,-0.38,-0.34,-0.66,-0.32,33.92
-8.71,1.85,-0.74,-0.61,0.27,-0.03,33.92
-7.94,2.36,-2.75,-2.87,0.23,0.51,33.93
-8.75,-0.47,-0.02,-0.29,0.13,-0.32,33.94
-7.07,-2.1,-1.43,0.38,0.12,0.14,33.92
-8.69,1.4,1.53,0.41,0.26,-0.2,33.92
-7.38,1.0,-2.31,-0.5,0.01,0.34,33.91
-8.21,-0.94,0.67,-0.19,0.29,0.04,33.93
-7.96,-1.55,-0.81,0.99,0.05,-0.2,33.92
-8.5,0.67,1.75,-0.1,0.1,-0.21,33.94
-8.88,-2.54,0.17,-0.25,-0.02,0.1,33.91
-9.85,-1.28,1.05,-0.21,-0.17,0.41,33.93
-7.96,-1.3,0.47,0.56,0.07,-0.05,33.92
-11.88,1.04,-0.31,-0.49,-0.59,-0.34,33.94
-8.29,-0.07,1.47,-0.18,0.1,-0.12,33.93
-6.25,1.45,-1.94,-1.59,0.49,0.21,33.94
-8.63,-1.04,-2.06,-2.76,-0.17,0.2,33.94
-8.84,-2.32,-0.62,-0.98,-0.05,-0.35,33.91
-8.92,-0.14,1.26,0.48,-0.27,-0.11,33.95
-9.27,1.64,0.47,0.0,0.32,-0.03,33.92
-11.08,-1.41,1.58,-0.25,-0.31,0.33,33.9
-8.75,-2.17,1.11,0.28,0.23,0.24,33.91
-8.5,-1.9,-1.88,0.1,0.36,0.03,33.91
-8.36,0.09,1.76,-0.03,0.07,-0.09,33.93
-8.87,-1.95,-0.6,-0.08,0.26,-0.09,33.91
-9.75,-2.04,1.22,0.1,-0.19,0.28,33.93
-7.99,-1.58,0.76,-0.01,0.17,0.07,33.9
-9.29,-1.6,-2.43,0.36,-0.37,-0.29,33.91
-7.5,0.3,0.98,0.06,0.01,-0.15,33.94
-8.95,-0.81,0.05,-1.66,0.25,-0.08,33.92
-8.64,0.47,1.34,-1.75,-0.44,0.26,33.94
-8.82,-0.28,-1.55,-0.18,-0.41,-0.21,33.92
-10.93,0.68,2.1,0.35,-0.44,-0.61,33.94
-9.81,0.57,1.01,0.27,0.38,-0.17,33.92
-12.4,0.81,1.47,-0.55,-0.73,0.99,33.92
-8.43,0.02,-0.53,-0.43,0.6,-0.14,33.93
-10.46,-0.36,-1.05,0.3,-0.36,-0.25,33.93
-11.45,0.34,-0.93,-0.69,-0.81,0.63,33.93
-8.82,-1.04,1.14,0.87,0.15,-0.05,33.91
-10.69,0.92,-0.96,-0.68,-0.2,0.16,33.91
-9.22,1.97,2.97,0.35,0.01,-0.43,33.93
-10.54,1.27,-0.74,-1.19,0.2,0.64,33.92
-9.22,0.36,-0.01,-1.35,-0.02,0.21,33.92
-10.32,0.72,-1.75,0.75,-0.49,-0.18,33.92
-8.7,0.57,1.15,1.19,0.07,-0.21,33.92
-11.82,0.68,-1.0,-0.26,-0.97,0.32,33.9
-8.86,1.42,-0.86,0.01,0.07,-0.25,33.91
-8.47,2.32,-2.11,0.98,-0.2,0.1,33.91
-9.1,1.99,-2.22,-0.29,-0.03,0.25,33.92
-10.21,0.78,-0.09,1.11,-0.63,-0.35,33.92
-8.5,1.07,0.45,1.33,0.08,-0.04,33.89
-10.52,0.73,-1.01,-0.46,-0.21,0.77,33.9
-9.17,-0.4,-0.33,-1.35,0.3,0.02,33.93
-8.95,2.06,-1.41,-0.96,0.4,-0.41,33.93
-7.96,0.97,0.25,0.09,0.08,-0.19,33.9
-8.89,0.34,0.91,-0.2,-0.2,0.15,33.92
-9.52,0.44,0.01,0.67,0.4,-0.16,33.92
-9.02,1.37,0.67,0.18,0.34,-0.08,33.91
-8.28,2.42,-1.18,-2.54,0.33,0.57,33.91
-9.26,-0.34,-0.0,-0.92,-0.04,-0.18,33.92
-8.67,1.93,1.14,0.24,-0.11,-0.25,33.92
-8.21,1.36,-1.78,-1.05,0.61,0.05,33.92
-8.57,0.11,0.4,-0.41,0.07,0.24,33.92
-8.56,1.82,-0.39,-0.07,-0.27,-0.25,33.91
-8.65,2.96,-0.3,-2.17,0.33,-0.18,33.91
-8.3,-0.74,-2.85,0.32,0.38,-0.11,33.91
-8.58,2.84,-1.02,-1.45,0.07,-0.04,33.92
-6.64,2.89,-1.85,-1.95,0.75,0.23,33.9
-9.9,-0.06,-0.64,-0.86,0.0,-0.3,33.89
-8.71,1.23,1.5,0.55,-0.11,-0.23,33.89
-8.5,1.39,0.22,-1.05,0.04,-0.04,33.89
-9.65,-1.37,-1.05,0.19,-0.19,-0.25,33.91
-9.11,-0.43,0.91,0.84,-0.05,0.08,33.91
-10.01,0.74,-0.29,0.18,-0.29,0.08,33.92
-11.55,0.37,1.95,0.33,-0.52,0.21,33.92
-8.32,0.11,0.77,-0.35,0.17,0.13,33.93
-7.92,1.22,-2.31,0.17,0.16,0.04,33.91
-12.45,-0.23,-0.02,0.09,-0.92,-0.16,33.92
-8.49,2.19,1.49,0.11,0.4,-0.2,33.92
-7.06,2.13,-2.6,-0.33,0.43,0.06,33.9
-8.55,0.33,1.69,-0.99,0.0,0.13,33.91
-9.27,0.43,0.23,0.09,0.39,0.03,33.92
-12.3,0.23,-0.08,-0.0,-0.73,-0.33,33.94
-8.64,1.36,0.98,1.04,0.29,-0.1,33.92
-10.51,1.79,-0.96,-1.43,0.17,0.47,33.92
-10.43,3.34,-0.58,-1.77,-0.51,-0.88,33.93
-7.55,2.09,-0.34,-1.53,0.43,-0.03,33.91
-10.37,-0.54,1.82,-0.58,-0.33,0.45,33.94
-7.75,-1.51,1.22,-0.07,0.11,0.09,33.92
-11.35,0.3,-1.98,0.56,0.47,-0.05,33.92
-8.26,-0.19,1.31,0.51,0.3,-0.13,33.94
-6.92,0.17,-0.37,-0.86,0.53,-0.19,33.94
-9.65,-1.46,0.59,0.21,-0.35,0.31,33.94
-8.19,-1.36,0.6,-0.46,0.34,-0.03,33.92
-7.22,-1.96,-1.72,0.41,0.1,-0.1,33.92
-8.77,-0.1,1.4,-0.43,0.02,-0.13,33.92
-8.73,-0.28,1.22,-0.65,-0.16,0.1,33.92
-9.28,0.4,-0.1,0.12,0.37,-0.15,33.92
-12.17,-1.69,1.61,0.53,-0.62,-0.3,33.92
-7.81,0.55,0.11,-0.5,0.28,-0.24,33.93
-7.84,0.02,-2.66,0.4,0.08,0.23,33.94
-8.69,-1.58,1.39,-0.02,0.2,0.13,33.93
-8.08,-1.99,-1.01,0.41,-0.04,0.08,33.94
-10.37,0.38,1.23,0.42,-0.35,0.11,33.94
-7.55,-0.34,0.07,0.06,0.43,-0.04,33.95
-9.77,-1.23,1.72,-0.76,-0.28,0.56,33.92
-8.75,-0.23,-0.02,0.06,0.25,-0.11,33.92
-7.9,-0.57,0.58,0.23,-0.24,-0.09,33.92
-8.55,2.01,-2.04,-2.49,0.48,0.19,33.91
-9.56,-1.01,-0.1,-1.25,0.32,0.05,33.93
-11.21,0.37,-1.12,0.4,-0.15,-0.29,33.92
-9.42,-0.42,-0.56,0.13,-0.06,0.01,33.93
-8.26,-0.25,1.19,-0.21,-0.51,-0.04,33.92
-9.88,-0.04,1.02,0.58,0.37,-0.16,33.92
-9.32,-0.44,1.45,0.42,-0.17,-0.28,33.91
-8.48,-1.45,-1.4,-0.88,0.13,-0.01,33.92
-10.2,-1.07,0.68,-0.77,-0.31,0.53,33.91
-10.69,0.68,-2.51,0.39,0.33,0.11,33.91
-10.61,0.62,0.58,0.82,-0.01,-0.38,33.92
-11.2,0.32,1.54,0.03,0.11,-0.17,33.92
-14.54,0.52,-0.67,-0.38,-0.62,0.4,33.92
-7.82,-1.52,-0.5,0.06,0.12,0.1,33.91
-9.28,-0.83,-1.95,-0.73,-0.49,-0.15,33.93
-8.5,1.6,-1.1,-1.92,0.11,-0.36,33.92
-9.31,-1.16,0.5,-0.28,-0.29,0.16,33.94
-9.73,-2.14,0.37,0.25,0.42,0.09,33.94
-12.07,-1.02,-2.22,-0.44,-0.47,-0.26,33.91
-9.59,-0.07,1.47,0.03,-0.1,-0.16,33.92
-7.84,-0.23,-0.88,-0.81,-0.12,0.02,33.91
-13.03,-0.36,-1.46,-0.25,-0.53,0.3,33.93
-8.36,-1.64,-0.05,0.02,0.3,0.14,33.93
-7.17,-2.29,-1.28,0.4,0.04,0.01,33.94
-8.9,0.79,0.54,0.09,0.04,-0.05,33.92
-13.76,-0.41,-0.66,-0.54,-0.36,0.04,33.93
-7.8,-1.14,-0.59,-2.81,0.15,-0.5,33.94
-13.88,0.45,-1.14,-0.48,-0.71,-0.63,33.96
-8.0,0.47,-0.11,-0.02,0.01,-0.19,33.94
-7.63,0.07,-2.78,0.01,-0.23,0.3,33.95
-8.52,-1.1,0.54,-0.08,0.13,0.12,33.94
-9.28,-0.38,-1.42,0.01,0.14,0.03,33.93
-10.98,-0.48,0.77,0.08,-0.28,-0.26,33.95
-8.77,0.73,0.54,0.14,0.29,-0.05,33.95
-12.61,-1.22,-1.73,0.1,-0.82,0.4,33.95
-8.07,-1.2,0.43,0.07,0.34,0.07,33.94
-6.79,-2.15,-1.0,0.4,-0.04,-0.06,33.93
-8.26,0.03,0.94,0.11,-0.08,-0.14,33.93
-10.34,-1.6,-1.73,-0.64,0.49,0.09,33.95
-9.47,-1.38,-1.6,-2.12,-0.03,0.08,33.92
-8.81,-2.89,-2.57,-1.44,-0.21,-0.01,33.94
-8.57,0.46,0.85,0.22,0.06,-0.05,33.93
-6.66,1.12,-1.94,0.09,-0.16,0.39,33.94
-8.41,-0.73,0.91,-0.31,0.16,0.03,33.93
-8.1,0.65,-1.53,0.06,0.09,0.06,33.93
-11.43,-0.25,2.02,0.5,-0.38,-0.23,33.95
-8.88,1.12,1.1,0.32,0.45,-0.11,33.95
-6.68,1.12,-3.08,-0.5,0.24,0.04,33.94
-9.74,-1.02,1.64,-0.28,-0.14,0.08,33.96
-8.22,-1.49,0.05,-0.32,0.02,-0.05,33.94
-12.59,-0.05,-1.34,0.02,-0.54,-0.2,33.94
-7.09,1.1,-4.03,-1.94,0.54,0.12,33.94
-8.21,-2.09,-0.7,-1.45,-0.09,-0.64,33.94
-9.1,0.17,-0.06,-0.06,-0.23,-0.3,33.94
-7.98,1.28,0.22,0.04,-0.07,-0.47,33.94
-11.97,-1.05,-2.18,0.03,-0.94,0.38,33.94
-8.4,-1.59,1.0,-0.05,0.42,0.16,33.95
-7.52,-1.02,-2.01,0.58,0.05,0.04,33.94
-9.16,-0.74,0.77,0.52,-0.15,-0.16,33.94
-8.7,0.54,-0.82,-0.3,0.35,-0.1,33.93
-12.73,0.52,-2.29,0.18,-0.54,0.48,33.94
-7.9,-2.08,1.46,0.31,0.2,0.16,33.96
-9.71,-1.34,-1.44,-1.31,0.14,0.03,33.94
-9.34,1.28,0.02,-2.28,-0.12,-0.61,33.96
-8.87,-1.89,-1.26,0.31,0.37,-0.08,33.95
-8.42,-4.05,-0.19,0.57,-0.21,0.48,33.95
-7.33,-0.92,0.1,-0.79,0.49,-0.46,33.94
-7.73,-2.07,-0.74,1.45,0.16,0.21,33.94
-8.61,-1.82,-2.75,1.45,0.29,0.11,33.96
-9.19,-0.04,-1.13,1.85,-0.02,-0.0,33.92
-11.1,-0.15,-0.5,-1.57,0.1,0.78,33.96
-8.63,-1.13,-3.31,0.62,0.46,0.28,33.93
-8.81,1.72,-3.58,0.47,0.19,0.16,33.94
-10.93,1.16,-1.77,0.02,-0.24,0.13,33.95
-9.76,0.52,-2.13,0.06,0.29,0.12,33.93
-11.88,0.33,-0.04,-0.64,-0.34,0.49,33.94
-8.33,-2.59,-1.57,-0.05,-0.11,-0.07,33.95
-8.35,-0.16,0.57,0.27,-0.18,0.08,33.93
-9.39,-0.62,1.33,0.09,0.12,-0.03,33.95
-8.87,-3.36,-0.72,0.53,0.01,-0.08,33.95
-8.69,-0.82,0.2,0.54,0.2,0.21,33.93
-9.47,-0.87,-0.36,-0.59,0.22,0.07,33.94
-7.98,-1.36,1.16,-0.3,-0.02,0.4,33.94
-9.33,-0.33,-0.95,-0.08,0.15,0.1,33.94
-8.79,-0.19,1.45,0.17,-0.17,-0.07,33.94
-9.42,0.22,-0.59,-0.69,0.16,-0.13,33.91
-8.65,-1.66,0.73,-0.52,-0.09,0.16,33.93
-7.89,-2.52,-1.04,0.89,0.26,0.03,33.92
-8.64,-0.62,1.61,0.3,0.06,-0.1,33.92
-6.53,1.36,-3.27,-0.93,0.22,0.22,33.93
-8.76,-1.44,0.63,-0.09,0.09,0.06,33.94
-8.05,-2.15,-0.57,0.7,-0.07,-0.08,33.94
-8.34,-0.08,0.64,0.31,0.13,-0.25,33.94
-8.97,-0.71,-1.31,-0.31,0.19,0.37,33.95
-8.31,-0.66,-0.48,-1.63,0.11,0.14,33.93
-9.19,-1.26,-0.07,-0.84,-0.82,-0.17,33.92
-8.56,0.78,-0.74,-0.47,-0.11,-0.19,33.9
-11.77,0.56,0.96,-0.59,-0.63,0.27,33.91
-9.03,-2.06,0.31,0.02,0.55,0.06,33.93
-9.2,0.07,1.12,0.43,0.0,-0.15,33.93
-10.81,-0.09,0.06,-0.79,-1.17,0.1,33.92
-9.79,-0.64,-0.79,0.31,0.25,-0.23,33.93
-8.61,-0.48,0.75,0.36,0.11,-0.23,33.93
-9.25,0.33,-1.92,-0.44,-0.49,0.04,33.92
-7.97,-1.93,-0.29,-0.09,0.16,-0.05,33.94
-9.52,0.51,0.96,0.31,-0.08,-0.1,33.92
-11.97,-1.41,-0.14,0.16,-1.02,0.3,33.92
-8.48,-2.2,0.02,0.9,0.4,0.07,33.93
-11.57,-1.02,-1.18,-0.53,-0.59,-0.19,33.91
-8.97,1.33,-0.15,-1.63,0.13,0.21,33.93
-9.07,-1.17,0.15,-0.88,0.09,-0.27,33.92
-9.86,0.96,1.42,0.41,-0.38,0.12,33.91
-8.22,1.12,0.44,-0.67,0.44,-0.05,33.91
-12.04,-0.72,-1.6,-0.24,-1.05,0.31,33.9
-8.96,-1.97,0.31,-0.04,0.15,-0.02,33.9
-11.7,-1.92,-0.56,0.97,-0.62,-0.25,33.91
-8.97,0.28,-0.51,0.21,0.03,-0.03,33.91
-10.34,-1.95,1.27,-0.46,-0.17,0.39,33.93
-8.57,-1.96,-0.56,-0.18,0.01,0.06,33.91
-9.81,0.11,0.5,0.48,-0.17,-0.31,33.91
-8.26,1.12,-0.09,0.23,0.2,-0.04,33.92
-8.2,-0.57,0.69,-0.81,-0.25,0.1,33.9
-8.54,-1.36,-2.14,-0.43,-0.29,0.16,33.92
-8.59,2.24,-0.82,-1.46,0.25,-0.16,33.9
-9.36,-1.35,0.72,-0.76,-0.27,0.26,33.92
-8.91,-1.34,-1.98,0.69,0.11,-0.09,33.89
-8.59,-0.17,0.25,0.13,0.22,-0.23,33.89
-10.54,-0.73,1.94,-0.5,-0.03,0.23,33.9
-7.98,-0.16,-0.47,0.04,0.02,0.05,33.9
-9.89,0.64,0.1,0.24,-0.39,-0.33,33.91
-9.31,0.2,-0.9,-0.51,0.19,0.11,33.92
-8.18,-1.7,0.71,-0.44,-0.16,0.17,33.91
-8.18,-0.37,-1.65,-0.01,-0.08,0.07,33.89
-8.72,0.67,0.29,0.56,-0.0,0.01,33.89
-10.63,-2.08,0.8,-0.38,-0.72,0.51,33.87
-8.11,-2.31,0.15,0.97,0.34,-0.05,33.91
-11.16,-0.84,-1.34,-0.08,-0.77,-0.69,33.89
-8.7,1.88,-1.05,-2.16,0.06,-0.18,33.9
-8.54,-1.52,1.4,-0.42,0.01,0.01,33.89
-11.91,0.92,-1.26,-0.25,-0.59,-0.35,33.9
-8.23,0.0,1.05,-0.51,0.2,-0.07,33.92
-10.81,-0.08,-0.46,-0.42,-0.64,0.19,33.89
-9.19,-1.5,-0.37,0.31,0.16,-0.03,33.89
-9.31,0.43,0.86,0.46,-0.06,-0.22,33.88
-9.24,1.1,-1.8,-0.82,0.11,-0.05,33.88
-8.63,-1.98,1.7,0.09,0.06,0.15,33.89
-8.73,-1.56,-0.1,0.36,0.03,0.1,33.89
-8.64,0.74,0.55,0.21,0.12,-0.1,33.88
-9.55,-2.02,0.25,-0.23,-0.28,0.25,33.89
-10.07,-0.64,0.38,0.34,0.14,-0.03,33.9
-9.31,-0.3,1.21,0.34,-0.46,-0.17,33.89
-8.64,-0.13,-2.24,-2.44,0.37,0.07,33.88
-8.63,-1.48,0.1,-0.84,0.1,-0.08,33.87
-11.88,-1.89,1.18,-0.46,-0.55,0.58,33.84
-9.63,-0.54,-0.7,0.29,0.26,-0.16,33.88
-9.24,-0.27,1.78,0.24,-0.02,-0.23,33.85
-7.75,-0.59,-2.9,0.04,0.0,0.27,33.85
-9.33,0.4,0.53,-0.19,-0.5,-0.15,33.85
-8.83,1.24,-1.51,-2.23,0.43,0.1,33.85
-8.71,-2.08,-0.34,-0.64,-0.06,-0.3,33.84
-9.37,0.65,0.59,0.05,-0.27,-0.25,33.86
-8.18,0.42,0.39,0.31,0.0,0.07,33.84
-12.55,-1.12,0.08,-0.66,-0.82,0.31,33.84
-8.48,-2.31,-0.37,0.23,0.13,-0.37,33.85
-8.85,0.26,0.57,0.32,0.27,-0.02,33.84
-8.58,-1.81,0.15,0.06,0.16,0.09,33.84
-9.95,-0.34,0.81,0.35,-0.18,-0.14,33.85
-9.51,-0.91,0.05,-0.17,0.21,-0.04,33.84
-8.27,-1.22,0.96,-0.27,0.07,0.1,33.84
-9.04,-0.46,-0.61,-0.15,-0.06,0.0,33.83
-9.34,2.0,-0.81,-1.38,-0.01,-0.32,33.84
-15.09,0.49,-3.27,-1.23,-0.84,0.0,33.82
-8.35,-2.43,0.26,-0.55,0.05,-0.03,33.82
-9.79,0.18,0.7,0.42,-0.07,-0.17,33.82
-8.47,-0.56,-0.51,-0.21,0.23,-0.01,33.82
-10.46,-2.55,2.06,-0.25,-0.38,0.37,33.81
-8.68,-1.64,-0.41,0.02,0.24,0.08,33.82
-11.89,-1.28,-0.72,0.06,-0.33,-0.37,33.82
-8.57,0.18,-0.45,-0.56,0.12,-0.1,33.81
-7.44,-0.03,-2.0,-0.33,0.2,0.14,33.81
-8.32,-1.35,0.84,0.27,0.1,0.12,33.81
-8.69,0.27,-1.58,-0.66,0.14,0.01,33.82
-8.81,1.48,-0.87,-1.34,-0.07,-0.59,33.79
-10.05,-1.31,0.48,-0.35,-0.45,0.26,33.81
-8.55,-0.51,-0.51,-0.86,-0.11,-0.05,33.81
-8.6,-0.28,1.18,0.62,0.13,-0.12,33.83
-9.16,0.94,-1.69,-1.32,0.31,-0.15,33.81
-8.57,-1.07,1.08,-0.02,-0.04,0.15,33.81
-8.2,-2.57,-0.83,0.83,-0.16,0.02,33.8
-8.63,0.04,0.49,0.24,0.21,-0.12,33.79
-8.52,0.92,-3.12,-0.54,-0.38,0.15,33.8
-8.81,-1.91,0.48,0.05,0.12,0.13,33.8
-9.58,-0.54,1.89,0.76,-0.19,-0.17,33.79
-8.56,-1.4,-1.13,-0.44,0.3,0.0,33.8
-8.45,-1.74,1.35,-0.28,0.09,0.18,33.81
-9.01,-0.82,-1.53,-0.27,-0.33,-0.2,33.8
-8.64,1.64,-1.33,-1.75,0.08,-0.16,33.79
-9.39,-2.31,0.85,-0.62,-0.15,0.11,33.81
-10.53,0.33,-0.45,0.22,-0.63,-0.4,33.79
-8.77,1.14,-1.24,-0.68,0.14,0.05,33.79
-7.46,-2.45,-1.85,0.44,0.12,-0.07,33.79
-11.44,-0.48,-0.09,0.33,-0.13,-0.28,33.79
-8.76,-0.72,-0.03,-0.62,0.13,0.11,33.78
-9.98,-2.07,-0.64,-0.39,-0.18,0.45,33.78
-7.74,-2.61,0.64,0.24,0.25,0.01,33.78
-9.99,-2.92,-2.09,0.07,-0.22,-0.21,33.77
-9.62,-0.45,0.88,-0.02,-0.04,-0.25,33.78
-8.69,-1.24,-1.05,-1.46,-0.01,-0.05,33.79
-10.35,-2.36,-0.03,-0.86,-0.17,0.1,33.78
-15.97,-1.32,-1.9,-0.38,-0.17,-0.42,33.79
-9.0,-1.18,0.03,1.78,0.18,-0.01,33.75
-8.97,-2.83,-1.62,0.49,0.26,0.38,33.75
-9.78,-0.82,-3.28,0.5,-0.46,0.34,33.76
-8.38,-0.61,-3.71,0.48,0.23,0.28,33.76
-8.64,1.86,-2.11,-0.0,-0.12,-0.1,33.75
-8.33,-0.61,-2.5,1.28,-0.58,0.33,33.75
-9.39,-2.63,-1.37,0.55,-0.12,0.01,33.77
-8.23,-0.61,0.88,-0.94,-0.03,-0.48,33.77
-7.86,1.31,-2.22,-1.08,0.11,0.06,33.74
-8.19,-3.55,-0.39,1.09,0.26,0.21,33.75
-10.33,-2.08,-1.33,1.3,-0.56,-0.79,33.74
-9.34,1.03,0.34,-1.14,-0.27,-0.06,33.76
-8.61,-2.28,-1.35,-0.02,-0.31,0.21,33.75
-8.52,-1.07,-1.37,-1.28,-0.83,-0.09,33.72
-8.25,0.5,-1.56,-1.45,0.0,0.01,33.74
-10.32,-1.23,-0.61,-1.41,-0.6,0.4,33.73
-7.77,-0.72,-2.58,-0.34,0.19,-0.1,33.74
-10.24,0.54,-0.74,-0.19,0.1,-0.41,33.73
-8.19,1.92,-1.42,-0.91,0.19,0.06,33.75
-10.38,-1.36,-0.2,0.16,-0.08,0.41,33.74
-6.89,0.27,-2.01,0.36,0.24,0.32,33.76
-8.91,-1.14,-1.47,-0.59,-0.37,0.16,33.74
-9.06,-0.14,1.08,0.89,0.5,0.06,33.76
-9.85,0.8,0.65,0.28,-0.16,0.11,33.75
-8.76,0.32,-3.72,-0.31,-0.42,0.19,33.74
-8.97,-1.0,0.64,-0.6,-0.27,0.26,33.73
-8.75,-2.85,0.12,0.04,0.28,0.05,33.74
-10.75,-1.75,-2.27,0.06,-0.41,-0.24,33.73
-8.97,-0.34,1.5,-0.22,-0.1,-0.13,33.74
-6.49,-3.19,-0.51,-0.44,0.09,0.0,33.74
-13.48,-0.91,-1.11,-0.05,-1.13,0.18,33.73
-8.31,-1.88,0.83,0.03,0.37,0.06,33.73
-9.02,-0.33,-1.25,-0.35,0.21,0.24,33.74
-8.71,2.1,-0.38,-2.22,0.16,-0.46,33.73
-13.2,-1.66,0.16,0.07,-0.36,0.31,33.74
-7.95,-2.3,0.02,0.52,0.11,0.14,33.74
-6.59,-2.05,-2.5,0.69,0.31,0.05,33.75
-9.31,-0.23,-0.08,0.08,-0.16,-0.14,33.72
-7.81,0.43,-0.7,-0.45,0.18,-0.06,33.74
-15.01,-0.11,-0.41,-0.36,-0.58,0.42,33.74
-8.4,-1.38,0.72,0.19,-0.05,0.12,33.74
-8.18,-1.28,-0.62,0.71,0.11,0.09,33.72
-12.96,-1.54,-1.76,0.13,-0.49,-0.32,33.72
-7.93,0.06,0.48,-0.33,0.0,-0.21,33.74
-6.84,0.26,-2.37,-0.75,0.06,-0.08,33.72
-8.77,-1.07,-1.2,-2.23,-0.34,0.1,33.72
-9.34,1.02,0.44,-0.91,-0.09,-0.25,33.73
-9.2,-0.24,-0.68,-0.01,-0.06,0.47,33.71
-10.21,-2.99,0.55,0.46,-0.34,0.34,33.73
-8.02,-1.29,-0.19,-0.22,-0.06,-0.05,33.73
-9.49,-1.61,-1.96,-0.17,-0.58,-0.17,33.71
-8.44,-0.37,2.11,0.17,-0.09,0.05,33.72
-9.92,-1.14,-0.23,-0.34,-0.18,-0.01,33.72
-9.6,-2.29,1.0,0.28,-0.39,0.36,33.7
-8.14,-1.13,-0.28,0.06,0.03,-0.1,33.72
-12.32,-1.92,-1.69,-0.05,-0.75,-0.21,33.71
-8.52,-0.34,0.2,0.28,0.05,-0.02,33.71
-10.75,-1.13,-0.47,-0.33,-0.38,0.33,33.73
-8.24,-1.61,0.29,-0.47,0.17,0.01,33.71
-8.72,-2.13,-1.98,-0.45,-0.03,-0.13,33.72
-8.73,3.0,-1.74,-2.2,0.34,-0.41,33.71
-10.8,-1.88,0.7,0.06,-0.08,0.33,33.72
-8.24,-2.18,-1.39,0.44,0.37,0.13,33.74
-12.39,-0.66,-1.06,-0.04,-0.5,-0.52,33.71
-7.96,0.61,0.21,0.03,0.25,-0.01,33.72
-8.12,-0.07,-3.75,-0.05,-0.32,0.56,33.71
-8.61,-0.86,0.56,0.04,0.2,0.14,33.71
-7.61,-1.43,-2.2,0.58,0.15,0.06,33.71
-9.57,-0.4,0.93,0.37,-0.17,-0.08,33.7
-8.65,0.36,-0.69,-0.07,0.07,-0.0,33.71
-13.29,-0.83,-0.89,-0.27,-0.54,0.25,33.7
-8.3,-1.29,0.54,-0.19,0.25,-0.15,33.71
-7.31,-2.68,-1.87,-0.11,-0.16,0.25,33.72
-8.6,2.76,-0.72,-2.44,0.13,-0.39,33.72
-10.37,-1.84,0.45,-0.38,-0.3,0.2,33.71
-8.38,-2.28,-0.15,0.12,0.44,-0.06,33.69
-9.89,-1.82,-2.68,-0.18,-0.54,-0.42,33.72
-9.04,0.29,1.87,-0.08,-0.07,0.05,33.7
-8.22,-1.26,-0.54,-0.54,0.05,-0.01,33.69
-13.01,-0.52,-0.55,0.15,-0.68,0.25,33.72
-8.37,-1.57,0.2,0.22,0.4,0.02,33.69
-8.23,-2.6,-1.67,0.64,0.11,0.1,33.7
-9.34,-0.51,1.51,0.22,-0.23,-0.15,33.7
-12.06,0.52,-0.91,-0.41,-0.61,-0.3,33.71
-7.97,3.02,-0.91,-2.21,0.3,-0.34,33.69
-8.31,-2.08,0.45,0.05,0.19,0.1,33.7
-7.08,-2.24,-2.0,0.36,0.32,0.02,33.7
-9.04,-0.69,1.93,0.19,-0.22,-0.03,33.7
-8.17,-1.32,-0.2,-0.64,-0.24,-0.03,33.7
-15.36,-0.51,-0.94,0.43,-0.61,0.43,33.67
-8.51,-1.41,0.59,0.38,0.22,0.12,33.67
-8.49,-1.02,-0.12,0.23,0.21,0.08,33.69
-10.45,-0.73,-1.85,-0.09,-0.5,-0.17,33.69
-9.0,0.08,0.45,-0.93,-0.1,-0.24,33.7
-8.73,-0.05,-2.65,-0.1,-0.17,0.41,33.68
-9.74,-1.31,0.85,-0.24,-0.29,0.42,33.69
-8.33,-3.06,-1.88,1.48,0.35,0.05,33.7
-9.29,0.01,-0.92,1.09,-0.15,-0.08,33.69
-8.72,1.07,-2.38,0.58,-0.13,0.03,33.7
-8.57,-2.79,-1.18,-0.25,-0.22,0.29,33.69
-8.79,-2.18,-2.41,2.32,0.08,-0.22,33.69
-7.99,-0.67,-0.94,0.55,0.22,0.03,33.69
-12.33,-1.43,-1.84,-0.68,-0.01,0.61,33.72
-8.14,-1.44,-0.37,0.25,0.15,0.12,33.67
-10.67,-0.9,-0.98,-0.85,-0.73,-0.85,33.69
-8.76,1.37,-1.71,-1.04,0.22,0.24,33.67
-8.81,-1.65,-0.26,-0.22,0.05,-0.17,33.68
-8.78,-0.33,0.76,0.74,-0.1,-0.13,33.68
-8.61,-0.28,-0.86,-0.2,-0.03,-0.03,33.69
-8.68,-1.98,0.03,-1.6,0.01,0.14,33.68
-9.14,0.95,-1.72,0.08,-0.2,-0.21,33.67
-7.22,2.92,-4.36,-2.48,0.47,-0.0,33.69
-8.85,-0.14,-0.29,-1.15,-0.12,-0.08,33.65
-9.45,-1.61,-1.1,0.33,-0.12,-0.15,33.69
-7.93,-0.48,-0.03,0.47,0.16,0.02,33.67
-8.33,1.04,-2.32,-1.79,-0.05,0.31,33.67
-8.24,-0.93,-1.6,-0.24,-0.22,-0.2,33.68
-8.77,0.75,-1.2,0.28,-0.26,-0.05,33.67
-10.35,-1.29,-0.65,-0.97,0.23,0.04,33.69
-10.14,-0.32,-0.44,-0.99,-0.04,0.43,33.68
-8.81,-1.46,-2.09,0.12,0.2,0.11,33.67
-8.78,1.44,-1.62,0.61,-0.1,-0.17,33.68
-8.99,0.88,-0.38,0.57,0.03,0.02,33.67
-8.22,-2.99,-3.2,1.61,-0.39,0.37,33.64
-6.74,-2.46,-1.11,1.2,0.1,0.1,33.67
-8.31,1.29,-1.06,-1.22,-0.12,-0.55,33.65
-8.03,-0.19,-3.5,-0.81,-0.19,0.29,33.68
-8.82,-1.07,-0.54,-1.46,-0.12,-0.03,33.68
-11.11,-2.78,-0.76,2.24,-0.46,0.52,33.67
-8.44,1.25,-0.32,-1.2,-0.23,-0.25,33.67
-8.88,1.36,-0.3,1.23,0.09,0.28,33.65
-9.85,0.44,-2.8,-0.17,-0.47,0.38,33.67
-8.28,-0.68,0.14,-0.15,0.07,-0.06,33.69
-9.19,0.73,-1.16,0.41,0.3,0.14,33.67
-10.01,0.55,0.58,0.12,-0.38,-0.47,33.66
-7.1,0.8,0.12,0.38,0.1,0.14,33.66
-11.72,-1.51,1.21,-0.6,-0.4,0.36,33.67
-8.67,-1.68,-0.64,0.22,0.44,0.17,33.67
-12.75,-0.23,-1.07,-0.63,-0.66,-0.16,33.67
-8.08,0.26,0.96,0.61,0.1,-0.08,33.66
-8.25,0.01,-1.8,-1.6,0.13,-0.08,33.66
-9.32,-0.12,-1.02,-2.12,-0.18,0.09,33.69
-9.36,0.19,-0.25,-1.22,-0.49,-0.35,33.67
-7.83,0.57,0.11,-0.65,-0.15,-0.17,33.67
-12.71,-0.57,-2.11,-0.16,-0.92,0.5,33.65
-8.25,-1.12,-0.23,0.34,0.4,0.15,33.67
-6.33,-2.33,-2.42,0.04,0.04,-0.01,33.66
-8.84,-0.07,1.11,0.24,0.1,-0.01,33.67
-9.28,-2.34,-0.96,-0.83,-0.06,-0.02,33.67
-9.64,-0.39,-0.67,-0.39,-0.34,0.25,33.68
-8.54,-1.23,-0.68,0.87,0.49,0.11,33.69
-13.16,0.38,-0.36,-0.62,-0.5,-0.29,33.68
-8.17,0.01,0.6,-0.12,0.13,-0.05,33.66
-12.96,-1.7,-0.74,-0.6,-0.81,0.28,33.66
-8.12,-2.26,-2.08,0.33,0.73,0.23,33.68
-7.13,1.92,-4.65,1.19,-0.25,-0.22,33.67
-8.04,4.17,-3.42,-1.36,-0.14,-0.32,33.67
-8.78,-1.42,-0.86,-1.48,0.03,-0.25,33.67
-8.33,-1.18,0.11,-0.48,-0.05,0.0,33.67
-8.31,0.17,-0.56,0.64,0.27,0.19,33.67
-11.9,-0.63,-0.12,0.43,-0.49,-0.19,33.67
-8.87,0.52,1.12,-0.03,0.15,-0.05,33.67
-12.68,-0.71,-0.75,-0.42,-0.56,0.41,33.67
-8.28,-2.07,0.07,-0.01,0.23,-0.02,33.67
-12.26,-1.58,-1.67,-0.22,-0.57,-0.33,33.69
-8.56,-0.69,-0.61,0.35,0.0,0.07,33.66
-10.61,0.68,-1.6,0.05,-0.53,0.16,33.67
-8.79,-1.28,-0.41,-1.89,0.05,0.03,33.66
-8.92,-0.95,-0.92,-1.64,-0.18,-0.42,33.67
-7.84,-0.41,-1.9,-0.45,0.12,-0.06,33.69
-13.12,-1.95,-1.36,-0.33,-0.3,0.32,33.66
-7.46,-0.77,0.0,-0.32,0.18,-0.06,33.66
-9.24,-2.59,-2.3,0.2,-0.18,-0.02,33.69
-8.47,0.56,1.13,0.43,0.13,-0.06,33.68
-7.58,-3.18,-0.78,0.13,-0.29,0.26,33.67
-10.67,-1.69,0.63,-0.24,-0.26,0.3,33.67
-8.89,-1.3,0.28,-0.15,0.16,-0.07,33.67
-9.56,-0.92,-2.35,-0.82,0.32,-0.09,33.67
-8.53,1.46,-1.72,0.49,0.67,-0.04,33.67
-6.95,1.42,-2.93,-0.53,-0.15,-0.05,33.67
-10.97,-3.38,-1.19,1.17,-0.56,0.26,33.64
-10.02,-1.9,-2.18,0.95,0.48,-0.06,33.65
-9.48,-0.04,-1.51,1.14,-0.19,-0.17,33.66
-8.51,-1.78,-0.21,1.43,-0.15,0.41,33.67
-8.83,-2.01,-2.96,1.93,0.27,-0.15,33.66
-10.31,-0.04,0.88,0.67,-0.19,-0.2,33.66
-7.94,-0.69,-1.54,-1.09,0.15,-0.1,33.65
-9.49,0.96,-0.83,-2.7,0.17,0.51,33.65
-8.94,-1.84,-0.68,-1.3,-0.5,-0.48,33.67
-8.33,-0.99,1.31,0.42,-0.08,-0.09,33.66
-9.11,1.43,-2.72,-1.37,0.37,-0.01,33.66
-9.21,-0.68,-0.33,-1.24,-0.31,0.31,33.66
-8.43,-3.17,-3.08,2.26,0.46,0.12,33.68
-9.1,-0.41,-0.14,1.84,0.39,0.13,33.68
-7.08,-0.58,-2.54,0.05,-0.23,0.23,33.66
-8.08,-0.84,0.08,-0.44,-0.03,0.13,33.64
-8.21,-1.51,-2.75,0.25,-0.02,-0.27,33.65
-8.76,0.92,0.16,-1.23,-0.0,-0.78,33.66
-9.96,-1.67,1.41,-0.4,-0.37,0.09,33.66
-8.45,-0.73,-1.44,0.29,0.1,0.12,33.64
-11.98,0.14,-1.63,0.09,-0.17,-0.59,33.66
-10.02,-0.58,-0.9,0.16,-0.09,0.06,33.67
-8.77,-3.78,-0.95,1.3,0.29,0.37,33.65
-9.72,-0.97,0.26,1.53,-0.11,-0.03,33.65
-7.69,0.01,-0.66,-0.08,0.23,-0.04,33.66
-9.22,0.81,-0.97,-2.58,-0.05,0.23,33.64
-9.14,-1.2,-1.76,0.17,0.1,-0.14,33.64
-8.28,0.68,-0.9,-0.4,0.02,-0.05,33.66
-8.69,-0.09,-0.14,-1.84,0.04,-0.3,33.65
-8.91,-2.02,-1.5,0.09,-0.07,0.12,33.65
-10.53,0.05,-1.47,0.43,-0.61,-0.47,33.63
-9.27,2.16,-0.68,-2.11,0.3,-0.0,33.65
-8.91,-0.29,-0.28,-0.82,0.12,-0.11,33.65
-9.77,-0.53,-2.33,-0.92,-0.27,-0.08,33.65
-8.6,-0.7,-1.05,1.36,0.26,0.21,33.65
-9.4,-3.27,-2.01,0.59,-0.3,0.54,33.64
-9.11,-1.76,-1.07,1.58,0.51,0.29,33.64
-11.05,0.12,-0.85,0.35,-0.35,-0.37,33.65
-9.2,0.07,-2.76,-0.43,0.05,-0.05,33.67
-9.62,-0.51,-0.76,-1.45,0.12,0.58,33.64
-8.62,-1.18,-0.14,-1.02,-0.17,-0.18,33.65
-9.22,0.31,-0.69,0.75,-0.14,-0.3,33.66
-8.72,-0.11,-1.73,0.43,0.2,0.17,33.64
-8.61,-1.96,-0.21,0.48,-0.0,0.68,33.66
-10.25,-0.48,-0.83,1.09,-0.12,-0.22,33.66
-9.44,-0.58,-0.3,0.89,0.36,0.31,33.66
-9.54,-2.53,0.73,0.27,-0.03,0.54,33.66
-8.23,-1.13,-1.34,-1.33,-0.05,-0.01,33.66
-8.73,2.11,0.42,-0.93,-0.02,-0.58,33.68
-7.48,1.07,-3.68,-2.11,0.28,0.05,33.67
-8.79,-1.18,-0.65,0.16,0.03,0.14,33.67
-6.4,-2.39,-3.19,1.6,0.22,-0.02,33.67
-8.33,1.52,-2.07,-0.37,0.16,0.04,33.67
-8.88,-1.36,-3.0,-1.54,-0.1,0.21,33.66
-9.07,-2.99,-0.81,0.23,0.19,-0.26,33.66
-7.75,0.8,-2.99,1.49,0.05,0.31,33.65
-8.19,2.02,-2.2,-1.45,-0.16,-0.32,33.67
-8.18,-2.64,-0.89,-0.26,-0.42,0.04,33.66
-8.56,-0.16,-0.73,-0.75,-0.4,-0.43,33.67
-8.59,0.58,-2.35,1.66,0.11,-0.07,33.67
-9.4,3.62,-2.77,-0.65,0.24,-0.21,33.66